,subject,session,block,trial,difficulty,stim_end,response,rt,stim_onset
1,YW,1,1,1,52,2.5,1,1.5518871,4.6067901
2,YW,1,1,2,52,4,2,0.6456803,10.3052617
3,YW,1,1,3,10,1,1,0.5640576,16.5853958
4,YW,1,1,4,52,4,1,0.4853466,19.7677649
5,YW,1,1,5,52,3.5,2,0.7203601,25.8824333
6,YW,1,1,6,52,3.5,2,0.4654416,31.7290198
7,YW,1,1,7,52,2,2,0.6696869,37.3105714
8,YW,1,1,8,52,2,2,0.7555887,41.609761
9,YW,1,1,9,80,1.5,2,0.6268528,45.9905765
10,YW,1,1,10,48,2,2,0.6340943,49.7394445
11,YW,1,1,11,48,1,2,0.8351661,54.0031043
12,YW,1,1,12,52,2.5,2,0.6213656,57.4514048
13,YW,1,1,13,52,2.5,1,0.5467359,62.2004295
14,YW,1,1,14,52,2.5,2,0.5692546,66.8638597
15,YW,1,1,15,48,1,2,0.7309033,71.5625121
16,YW,1,1,16,52,3,2,0.4828443,74.9127334
17,YW,1,1,17,48,1.5,1,0.5778896,80.0247276
18,YW,1,1,18,52,2.5,2,0.9899852,83.7246853
19,YW,1,1,19,48,3,2,0.5655288,88.8386675
20,YW,1,1,20,52,3.5,2,0.6756168,94.0356383
21,YW,1,1,21,52,1,2,0.4575646,99.8345673
22,YW,1,1,22,48,2,2,0.3236473,102.9150362
23,YW,1,1,23,48,2,2,0.5709642,106.8646533
24,YW,1,1,24,48,3,1,1.0989401,111.0599101
25,YW,1,1,25,52,1,2,0.7503484,116.7761093
26,YW,1,1,26,52,0.5,1,0.9477925,120.1566344
27,YW,1,1,27,52,1.5,2,0.6837644,123.2216978
28,YW,1,1,28,48,1.5,2,0.589102,127.0212699
29,YW,1,1,29,48,1.5,1,0.4328332,130.7377428
30,YW,1,1,30,48,4,2,0.4656448,134.2990653
31,YW,1,1,31,48,0.5,2,1.1389142,140.39774
32,YW,1,1,32,52,3.5,2,0.4469682,143.6646247
33,YW,1,1,33,48,0.5,2,0.9149559,149.2466697
34,YW,1,1,34,48,3.5,2,1.1486033,152.2920084
35,YW,1,1,35,52,1.5,2,0.6112374,158.5568359
36,YW,1,1,36,52,3,2,0.6507163,162.2890657
37,YW,1,1,37,52,4,2,0.4853261,167.567711
38,YW,1,1,38,52,4,2,0.7463111,173.6827701
39,YW,1,1,39,90,1.5,2,0.6329218,180.0498397
40,YW,1,1,40,52,3,1,1.7840545,183.8111175
41,YW,1,1,41,48,2,1,0.6708489,190.2080334
42,YW,1,1,42,52,2.5,1,0.6791984,194.5070432
43,YW,1,1,43,90,0.5,2,0.2252345,199.3049306
44,YW,1,1,44,52,0.5,2,1.0336773,201.6551378
45,YW,1,1,45,48,1,1,0.7050113,204.8185605
46,YW,1,1,46,52,2,2,0.5986381,208.1503203
47,YW,1,1,47,52,0.5,2,0.9376821,212.3658984
48,YW,1,1,48,52,2,2,0.4308461,215.4315835
49,YW,1,1,49,52,1,2,0.544248,219.4780908
50,YW,1,1,50,52,0.5,2,0.6504792,222.6459527
51,YW,1,1,51,48,1.5,2,0.5015113,225.4270791
52,YW,1,1,52,48,4,1,1.8127672,229.0635737
53,YW,1,1,53,52,3.5,2,0.6627113,236.5043803
54,YW,1,1,54,52,1.5,2,1.0829702,242.2845857
55,YW,1,1,55,48,0.5,2,1.3269915,246.4838658
56,YW,1,1,56,48,0.5,1,0.6924895,249.9317452
57,YW,1,1,57,80,1,2,0.5510836,252.7507272
58,YW,1,1,58,48,3.5,2,0.92541,255.9304073
59,YW,1,1,59,48,4,2,0.5293285,261.9790044
60,YW,1,1,60,52,2.5,1,0.6769162,268.1230355
61,YW,1,1,61,48,1.5,1,0.756809,272.9212643
62,YW,1,1,62,52,2,2,0.5056399,276.8033992
63,YW,1,1,63,80,0.5,2,0.5767618,280.9668501
64,YW,1,1,64,52,3.5,2,0.5577702,283.6668709
65,YW,1,1,65,48,3.5,2,0.5637407,289.3492248
66,YW,1,1,66,52,1.5,2,0.4943999,295.0342077
67,YW,1,1,67,52,1,2,0.9287034,298.6448512
68,YW,1,1,68,52,1.5,2,0.409392,302.1927415
69,YW,1,1,69,48,3,1,0.5227652,305.7252476
70,YW,1,1,70,20,1,1,0.5049888,310.9399567
71,YW,1,1,71,52,2,,,314.0711965
72,YW,1,1,72,48,0.5,1,0.4918045,319.6851516
73,YW,1,1,73,52,0.5,2,0.8849935,322.2999881
74,YW,1,1,74,52,4,1,0.6588114,325.2983483
75,YW,1,1,75,10,1.5,1,0.9986163,331.5793993
76,YW,1,1,76,52,3,2,0.5246471,335.6940216
77,YW,1,1,77,52,3,1,1.8238607,340.8455522
78,YW,1,1,78,48,2.5,2,0.7070171,347.2947912
79,YW,1,1,79,52,0.5,2,0.6132276,352.1227301
80,YW,1,1,80,90,1,2,0.6379113,354.8533781
81,YW,1,1,81,48,2.5,1,0.6602387,358.1187837
82,YW,1,1,82,48,1,1,1.121243,362.898242
83,YW,1,1,83,48,2.5,1,0.5103357,366.6474312
84,YW,1,1,84,52,1.5,1,0.6757996,371.2775491
85,YW,1,1,85,52,3,2,0.5775442,375.07726
86,YW,1,1,86,48,1,2,0.6015364,380.2744307
87,YW,1,1,87,52,1,2,0.8596455,383.5051229
88,YW,1,1,88,52,1.5,2,0.7564133,386.9875007
89,YW,1,1,89,10,0.5,1,0.4733997,390.8695043
90,YW,1,1,90,48,3.5,1,0.5137958,393.4697849
91,YW,1,1,91,48,4,1,0.5518297,399.0980673
92,YW,1,1,92,52,2,1,0.8467321,405.2787195
93,YW,1,1,93,52,3,2,0.5248536,409.7430937
94,YW,1,1,94,52,1,1,0.8484624,414.8911688
95,YW,1,1,95,52,0.5,2,1.1901739,418.3556312
96,YW,1,1,96,20,0.5,1,0.230438,421.6738566
97,YW,1,1,97,48,3,1,0.4675887,424.0384046
98,YW,1,1,98,48,2.5,1,0.6000778,429.1344873
99,YW,1,1,99,52,1,2,0.6238367,433.8496911
100,YW,1,1,100,52,4,1,0.7958866,437.096959
101,YW,1,2,101,52,1.5,2,1.134852,514.8790333
102,YW,1,2,102,52,2,2,1.9210116,519.1609348
103,YW,1,2,103,52,2,1,1.0708963,524.7082111
104,YW,1,2,104,48,1.5,2,1.1728287,529.4095728
105,YW,1,2,105,52,1.5,1,0.6858002,533.7056499
106,YW,1,2,106,52,3.5,2,1.0071894,537.519173
107,YW,1,2,107,52,2,1,0.4790041,543.6523419
108,YW,1,2,108,52,4,2,0.5740714,547.7481085
109,YW,1,2,109,52,3,2,0.7227945,553.9448878
110,YW,1,2,110,52,2.5,2,1.1630465,559.29333
111,YW,1,2,111,52,3.5,1,1.2327531,564.5743357
112,YW,1,2,112,52,2,2,0.6826674,570.9217685
113,YW,1,2,113,52,1,2,1.5437398,575.2200153
114,YW,1,2,114,48,0.5,2,0.6998253,579.3862028
115,YW,1,2,115,52,1,2,0.699899,582.2153289
116,YW,1,2,116,20,0.5,1,0.9465631,585.5333086
117,YW,1,2,117,52,2.5,2,0.5813785,588.6012464
118,YW,1,2,118,48,0.5,2,0.4573842,593.3112429
119,YW,1,2,119,48,1.5,2,0.5613846,595.8954934
120,YW,1,2,120,52,1.5,2,0.5355634,599.5750413
121,YW,1,2,121,48,3.5,2,0.6328284,603.2450373
122,YW,1,2,122,52,2.5,2,0.6160626,609.0064428
123,YW,1,2,123,48,2,1,0.4357773,613.7524432
124,YW,1,2,124,52,4,2,0.8949172,617.8211954
125,YW,1,2,125,52,0.5,2,1.2433771,624.3310148
126,YW,1,2,126,48,4,1,0.5041217,627.7001007
127,YW,1,2,127,52,0.5,2,0.8442837,633.8274675
128,YW,1,2,128,90,1,2,1.1096015,636.7963681
129,YW,1,2,129,52,3,2,0.8170235,640.5251511
130,YW,1,2,130,20,1,1,0.5875504,646.0223682
131,YW,1,2,131,52,3,2,0.6472555,649.2361513
132,YW,1,2,132,52,3,1,1.5817759,654.5008787
133,YW,1,2,133,48,2.5,2,0.5139363,660.6990445
134,YW,1,2,134,52,1.5,2,0.556866,665.3295177
135,YW,1,2,135,80,0.5,2,0.2008649,669.0126201
136,YW,1,2,136,52,2,2,0.4198625,671.3262914
137,YW,1,2,137,52,1.5,2,1.1666808,675.376173
138,YW,1,2,138,48,1,2,0.6578527,679.6741089
139,YW,1,2,139,52,3,2,0.7591132,682.954487
140,YW,1,2,140,48,1,1,0.6294668,688.3350864
141,YW,1,2,141,48,3,1,0.5005818,691.5840475
142,YW,1,2,142,52,2.5,2,1.0517245,696.6992103
143,YW,1,2,143,80,1,2,0.474294,701.8793579
144,YW,1,2,144,52,0.5,2,0.9474508,704.978705
145,YW,1,2,145,48,1.5,1,0.538472,708.0459514
146,YW,1,2,146,52,0.5,2,0.5218887,711.709966
147,YW,1,2,147,48,4,1,0.514134,714.3590234
148,YW,1,2,148,52,4,2,0.5957086,720.4891548
149,YW,1,2,149,48,3.5,1,0.7768145,726.7022336
150,YW,1,2,150,48,2.5,1,1.214143,732.6005428
151,YW,1,2,151,52,1,2,0.6788148,737.9470888
152,YW,1,2,152,48,2,1,1.0202905,741.2466271
153,YW,1,2,153,52,0.5,2,0.2643049,745.8942425
154,YW,1,2,154,48,4,2,0.5887543,748.2776577
155,YW,1,2,155,52,4,2,0.6074604,754.4902512
156,YW,1,2,156,52,2.5,2,0.7358085,760.7200498
157,YW,1,2,157,52,3,2,0.4815808,765.584167
158,YW,1,2,158,48,2.5,1,0.4590398,770.698313
159,YW,1,2,159,48,3,2,0.6235303,775.2810906
160,YW,1,2,160,52,4,1,0.7215414,780.527706
161,YW,1,2,161,52,2.5,2,0.7159069,786.8759232
162,YW,1,2,162,48,3,2,0.5666324,791.7077732
163,YW,1,2,163,52,1,2,0.6492873,796.9050822
164,YW,1,2,164,48,1.5,2,0.6043068,800.1699264
165,YW,1,2,165,52,1,2,1.0039632,803.9032916
166,YW,1,2,166,48,2.5,1,0.5449166,807.5330437
167,YW,1,2,167,52,0.5,2,1.3510585,812.197883
168,YW,1,2,168,52,3.5,2,0.615866,815.6793774
169,YW,1,2,169,52,0.5,2,1.1921404,821.4086891
170,YW,1,2,170,48,3.5,1,0.7039564,824.7264708
171,YW,1,2,171,48,4,1,0.4901863,830.5548702
172,YW,1,2,172,52,2,2,0.8750583,836.6712849
173,YW,1,2,173,48,0.5,1,0.7285493,841.1672543
174,YW,1,2,174,52,3.5,2,1.9262075,844.0173947
175,YW,1,2,175,52,3,2,0.673696,851.0659114
176,YW,1,2,176,52,4,2,0.6037378,856.360742
177,YW,1,2,177,52,1.5,2,1.3251438,862.59203
178,YW,1,2,178,48,3,1,0.8085477,867.040733
179,YW,1,2,179,52,1,2,0.6191255,872.4705119
180,YW,1,2,180,80,1.5,2,0.4869245,875.7187816
181,YW,1,2,181,52,1,2,0.3397075,879.3339452
182,YW,1,2,182,48,0.5,1,0.6909857,882.3010352
183,YW,1,2,183,90,1.5,2,0.5012476,885.1143619
184,YW,1,2,184,52,1.5,1,0.7139307,888.746453
185,YW,1,2,185,52,2,1,0.5508886,892.5784177
186,YW,1,2,186,48,1,1,0.5368983,896.7685597
187,YW,1,2,187,52,3.5,2,0.5736457,899.9285673
188,YW,1,2,188,48,1,2,0.6167728,905.624794
189,YW,1,2,189,10,1.5,1,0.2920707,908.8745766
190,YW,1,2,190,48,3.5,1,0.41052,912.2858451
191,YW,1,2,191,48,1.5,1,1.0750453,917.8846392
192,YW,1,2,192,90,0.5,2,1.1232246,922.0827777
193,YW,1,2,193,48,1,1,0.5778806,925.3307096
194,YW,1,2,194,52,3.5,2,0.4871558,928.5288551
195,YW,1,2,195,52,2.5,2,0.6226031,934.1426699
196,YW,1,2,196,48,2,1,0.9645605,938.8928174
197,YW,1,2,197,10,1,1,0.7836997,943.4919854
198,YW,1,2,198,48,2,1,0.5133808,946.9051946
199,YW,1,2,199,10,0.5,1,0.2817306,951.0355639
200,YW,1,2,200,48,0.5,1,0.7478882,953.4336229
201,YW,1,3,201,52,3.5,2,0.610871,1065.282729
202,YW,1,3,202,48,1.5,1,0.9540036,1071.031061
203,YW,1,3,203,52,3.5,2,0.4032049,1075.112789
204,YW,1,3,204,52,2.5,2,0.5592358,1080.645353
205,YW,1,3,205,52,1.5,2,0.4651031,1085.342387
206,YW,1,3,206,52,2.5,2,0.5425614,1088.926495
207,YW,1,3,207,10,1,1,0.5610707,1093.591566
208,YW,1,3,208,90,1.5,2,0.4516937,1096.769696
209,YW,1,3,209,48,0.5,1,0.8034603,1100.351886
210,YW,1,3,210,48,2,1,0.4994399,1103.284254
211,YW,1,3,211,80,0.5,2,0.4303892,1107.397829
212,YW,1,3,212,52,4,2,0.5723413,1109.947458
213,YW,1,3,213,48,2.5,1,0.6426824,1116.145692
214,YW,1,3,214,20,0.5,1,0.5531711,1120.909318
215,YW,1,3,215,48,1.5,1,0.5057927,1123.592959
216,YW,1,3,216,52,1,2,1.0225658,1127.226412
217,YW,1,3,217,52,3.5,2,0.372889,1130.871731
218,YW,1,3,218,52,1.5,2,1.1228839,1136.368698
219,YW,1,3,219,52,3,2,0.4288835,1140.619331
220,YW,1,3,220,52,2.5,2,1.155019,1145.731637
221,YW,1,3,221,48,0.5,1,0.7360399,1151.012255
222,YW,1,3,222,90,0.5,2,0.5038844,1153.877149
223,YW,1,3,223,52,2.5,2,0.4669614,1156.512575
224,YW,1,3,224,52,3,2,0.5349648,1161.107841
225,YW,1,3,225,48,3.5,2,0.4580611,1166.273619
226,YW,1,3,226,48,2.5,2,0.2808323,1171.853537
227,YW,1,3,227,10,0.5,1,0.4975098,1176.26835
228,YW,1,3,228,52,3,2,0.6405061,1178.886613
229,YW,1,3,229,52,3,2,0.5747393,1184.147877
230,YW,1,3,230,80,1,2,0.8320983,1189.345694
231,YW,1,3,231,52,0.5,2,0.9457262,1192.795878
232,YW,1,3,232,48,3.5,1,0.6351575,1195.858978
233,YW,1,3,233,52,3.5,2,0.5736516,1201.624432
234,YW,1,3,234,52,2.5,2,1.1294278,1207.323319
235,YW,1,3,235,52,4,2,0.8041697,1212.572558
236,YW,1,3,236,52,2,1,0.6652377,1218.998093
237,YW,1,3,237,48,4,2,0.6490868,1223.279242
238,YW,1,3,238,48,2.5,1,0.5969498,1229.543482
239,YW,1,3,239,48,3,2,0.5432881,1234.259222
240,YW,1,3,240,52,3,2,1.5348299,1239.425877
241,YW,1,3,241,48,2,2,1.5123126,1245.586358
242,YW,1,3,242,52,1,2,0.7005677,1250.717614
243,YW,1,3,243,48,1,1,0.4804968,1254.034002
244,YW,1,3,244,80,1.5,2,0.4470567,1257.132742
245,YW,1,3,245,52,2,2,0.6452413,1260.699658
246,YW,1,3,246,52,1,2,0.5844726,1264.961089
247,YW,1,3,247,48,3,1,0.554168,1268.159848
248,YW,1,3,248,52,0.5,2,0.4844224,1273.343088
249,YW,1,3,249,52,0.5,2,0.9533661,1275.957498
250,YW,1,3,250,48,4,1,0.5686555,1279.041034
251,YW,1,3,251,52,1.5,2,0.7192723,1285.236685
252,YW,1,3,252,52,2.5,2,0.5277943,1289.083715
253,YW,1,3,253,52,1,1,0.642017,1293.734981
254,YW,1,3,254,52,1.5,2,0.4545448,1296.996552
255,YW,1,3,255,52,3.5,1,1.0483488,1300.578039
256,YW,1,3,256,48,1.5,2,0.6407347,1306.747558
257,YW,1,3,257,48,3,2,0.9453147,1310.510178
258,YW,1,3,258,48,2.5,1,0.6054751,1316.071561
259,YW,1,3,259,52,0.5,2,1.0246238,1320.802419
260,YW,1,3,260,90,1,2,0.7229094,1323.951597
261,YW,1,3,261,52,2,2,0.525305,1327.299818
262,YW,1,3,262,48,1.5,2,0.5153346,1331.448614
263,YW,1,3,263,48,1,2,0.4655452,1335.081607
264,YW,1,3,264,48,0.5,2,0.5115088,1338.16543
265,YW,1,3,265,52,2,2,0.4623098,1340.793543
266,YW,1,3,266,52,3,2,0.2624482,1344.875752
267,YW,1,3,267,52,3.5,2,0.4243341,1349.758191
268,YW,1,3,268,52,0.5,2,0.5220932,1355.305615
269,YW,1,3,269,48,0.5,2,0.3140186,1357.954775
270,YW,1,3,270,52,2,2,0.4591975,1360.388603
271,YW,1,3,271,52,4,2,0.5633235,1364.46747
272,YW,1,3,272,52,0.5,2,0.7661445,1370.647689
273,YW,1,3,273,48,4,2,0.6295425,1373.530332
274,YW,1,3,274,52,1.5,2,0.540611,1379.793319
275,YW,1,3,275,48,1,2,0.6746205,1383.461561
276,YW,1,3,276,52,2.5,2,1.1502037,1386.75651
277,YW,1,3,277,52,1.5,2,0.5832081,1392.03873
278,YW,1,3,278,48,0.5,,,1395.756134
279,YW,1,3,279,48,2,1,0.7304688,1399.871136
280,YW,1,3,280,48,4,2,0.7300129,1404.231741
281,YW,1,3,281,52,1,1,0.6277535,1410.579739
282,YW,1,3,282,48,1,2,0.6611432,1413.82881
283,YW,1,3,283,48,1,1,0.5459095,1417.111299
284,YW,1,3,284,48,2,1,0.6588992,1420.27636
285,YW,1,3,285,52,0.5,2,0.6120051,1424.558289
286,YW,1,3,286,48,3,1,0.5522441,1427.289729
287,YW,1,3,287,52,4,2,1.5449816,1432.470688
288,YW,1,3,288,48,3.5,1,0.6349618,1439.633137
289,YW,1,3,289,52,2,2,0.4974173,1445.398035
290,YW,1,3,290,20,1,1,0.4637023,1449.513592
291,YW,1,3,291,52,1.5,2,0.5645301,1452.594436
292,YW,1,3,292,48,3.5,1,0.4813516,1456.275623
293,YW,1,3,293,52,1,2,0.5588098,1461.873968
294,YW,1,3,294,52,2,2,0.6747052,1465.055248
295,YW,1,3,295,52,3,1,0.6303165,1469.353237
296,YW,1,3,296,52,1,2,0.6644868,1474.601198
297,YW,1,3,297,48,1.5,2,0.5934461,1477.882119
298,YW,1,3,298,52,4,2,1.2872073,1481.600231
299,YW,1,3,299,10,1.5,1,0.4507854,1488.513209
300,YW,1,3,300,52,4,2,0.5567885,1492.09218
301,YW,1,4,301,48,1,2,1.3357993,1563.110305
302,YW,1,4,302,10,1,1,0.6868127,1567.075698
303,YW,1,4,303,48,1,2,1.0016883,1570.391396
304,YW,1,4,304,48,3.5,1,0.5862368,1574.024377
305,YW,1,4,305,20,1,1,0.6916468,1579.738577
306,YW,1,4,306,52,2,2,0.5546729,1583.052565
307,YW,1,4,307,48,0.5,2,0.3449483,1587.23405
308,YW,1,4,308,52,4,2,1.0264525,1589.710857
309,YW,1,4,309,48,2,2,0.4820912,1596.382557
310,YW,1,4,310,52,1,2,0.5984895,1600.482289
311,YW,1,4,311,52,3,2,0.6906829,1603.715389
312,YW,1,4,312,52,3.5,2,0.4660315,1609.024693
313,YW,1,4,313,20,0.5,1,0.8692806,1614.621659
314,YW,1,4,314,10,1.5,1,0.4615656,1617.622959
315,YW,1,4,315,52,1,2,0.7643801,1621.202056
316,YW,1,4,316,48,3.5,1,0.4878652,1624.587555
317,YW,1,4,317,52,3.5,2,0.6434607,1630.198824
318,YW,1,4,318,48,1.5,2,0.5938249,1635.962209
319,YW,1,4,319,48,3,1,0.4734104,1639.679509
320,YW,1,4,320,52,0.5,2,0.6291717,1644.774709
321,YW,1,4,321,48,1.5,2,0.6418138,1647.523623
322,YW,1,4,322,90,1.5,2,0.5820092,1651.291543
323,YW,1,4,323,52,1,2,1.3715031,1654.988513
324,YW,1,4,324,48,0.5,1,0.6159296,1658.986902
325,YW,1,4,325,52,1,2,0.4984902,1661.717444
326,YW,1,4,326,80,1,2,0.6478982,1664.832113
327,YW,1,4,327,48,4,1,0.4775598,1668.098784
328,YW,1,4,328,80,0.5,2,0.4961051,1674.19562
329,YW,1,4,329,52,1.5,2,0.5043466,1676.812528
330,YW,1,4,330,52,3,1,0.6135281,1680.443245
331,YW,1,4,331,48,0.5,2,0.9691732,1685.673628
332,YW,1,4,332,52,2.5,1,0.4994057,1688.776705
333,YW,1,4,333,52,3,2,0.1899471,1693.403287
334,YW,1,4,334,52,1,2,0.6630279,1698.217382
335,YW,1,4,335,52,1.5,1,0.6058724,1701.499974
336,YW,1,4,336,48,3.5,1,0.4895231,1705.232864
337,YW,1,4,337,52,4,2,0.5129415,1710.845505
338,YW,1,4,338,48,2,1,1.1279147,1716.975795
339,YW,1,4,339,48,1,1,0.522504,1721.724405
340,YW,1,4,340,48,2.5,1,0.435184,1724.872924
341,YW,1,4,341,52,3.5,2,0.5407716,1729.43812
342,YW,1,4,342,52,3.5,2,0.6942809,1735.10354
343,YW,1,4,343,52,2,1,0.522815,1740.915691
344,YW,1,4,344,52,4,1,0.4716705,1745.063614
345,YW,1,4,345,52,1,2,0.7177776,1751.160738
346,YW,1,4,346,52,2.5,2,0.4688533,1754.492934
347,YW,1,4,347,52,1.5,2,0.5122828,1759.091511
348,YW,1,4,348,48,3.5,2,0.5518452,1762.730863
349,YW,1,4,349,52,3.5,2,0.502332,1768.404116
350,YW,1,4,350,52,1.5,2,0.6006381,1774.035601
351,YW,1,4,351,48,2,2,0.7052538,1777.766752
352,YW,1,4,352,52,2.5,1,0.5109552,1782.100458
353,YW,1,4,353,52,2,1,1.0608797,1786.729145
354,YW,1,4,354,52,1,2,0.7521187,1791.40879
355,YW,1,4,355,52,3,2,0.5287026,1794.774602
356,YW,1,4,356,52,1.5,2,0.5439844,1799.922852
357,YW,1,4,357,52,2,2,0.4748154,1803.587196
358,YW,1,4,358,52,4,2,0.6492033,1807.686272
359,YW,1,4,359,52,3,1,0.4588974,1813.964694
360,YW,1,4,360,48,4,2,0.7212473,1819.046952
361,YW,1,4,361,52,2.5,2,0.8973553,1825.394387
362,YW,1,4,362,52,1.5,2,0.6742105,1830.409384
363,YW,1,4,363,48,2.5,1,0.4567581,1834.209153
364,YW,1,4,364,48,1,2,0.6334126,1838.788913
365,YW,1,4,365,48,0.5,2,0.6634035,1842.036736
366,YW,1,4,366,52,1.5,2,0.485894,1844.819753
367,YW,1,4,367,52,2,2,0.5977878,1848.43449
368,YW,1,4,368,52,4,2,0.5314086,1852.649879
369,YW,1,4,369,52,0.5,2,0.7607065,1858.795683
370,YW,1,4,370,48,2,2,0.4575227,1861.677576
371,YW,1,4,371,10,0.5,1,0.5238036,1865.759512
372,YW,1,4,372,52,4,1,0.6928783,1868.410582
373,YW,1,4,373,48,1.5,1,0.6327501,1874.723092
374,YW,1,4,374,52,0.5,2,0.659687,1878.487966
375,YW,1,4,375,48,1.5,1,0.8866983,1881.269096
376,YW,1,4,376,52,0.5,2,0.7826144,1885.283339
377,YW,1,4,377,90,1,2,0.4719488,1888.182606
378,YW,1,4,378,52,2.5,2,0.6204316,1891.287499
379,YW,1,4,379,48,4,2,0.5184246,1896.032873
380,YW,1,4,380,52,2,2,0.6151889,1902.175894
381,YW,1,4,381,52,3.5,2,0.5717219,1906.406763
382,YW,1,4,382,48,4,2,0.5247841,1912.104748
383,YW,1,4,383,48,2.5,2,0.5259908,1918.25323
384,YW,1,4,384,52,0.5,2,0.6397752,1923.001681
385,YW,1,4,385,52,3,2,0.6715782,1925.766688
386,YW,1,4,386,48,3,2,0.6945609,1931.063838
387,YW,1,4,387,48,3,2,0.4902991,1936.381696
388,YW,1,4,388,48,1.5,2,0.6507447,1941.496629
389,YW,1,4,389,52,0.5,1,0.7535412,1945.274135
390,YW,1,4,390,48,3,1,0.7389994,1948.156461
391,YW,1,4,391,48,2.5,2,0.6087012,1953.522938
392,YW,1,4,392,48,0.5,1,0.4965551,1958.250947
393,YW,1,4,393,52,2.5,2,0.5741662,1960.867736
394,YW,1,4,394,80,1.5,2,0.5005357,1965.565536
395,YW,1,4,395,52,3,2,0.4822181,1969.179872
396,YW,1,4,396,52,0.5,2,0.5798683,1974.294814
397,YW,1,4,397,52,2.5,2,0.4434131,1976.99273
398,YW,1,4,398,52,2,2,0.6070899,1981.614166
399,YW,1,4,399,48,1,2,0.6697346,1985.841341
400,YW,1,4,400,90,0.5,2,0.5152329,1989.138235
