,subject,session,block,trial,difficulty,stim_end,response,rt,stim_onset
1,PV,1,1,1,10,0.3,1,0.7599281,4.6011617
2,PV,1,1,2,48,3,1,0.9621679,7.307175
3,PV,1,1,3,48,5,1,1.1554537,12.8990257
4,PV,1,1,4,52,0.1,2,0.9436175,20.678147
5,PV,1,1,5,90,0.75,2,0.4881439,23.3472765
6,PV,1,1,6,52,0.75,1,0.9011999,26.2093348
7,PV,1,1,7,52,1,2,0.7265402,29.4737351
8,PV,1,1,8,52,0.5,,,32.8263665
9,PV,1,1,9,52,0.75,2,1.0023712,36.938886
10,PV,1,1,10,52,0.1,2,1.0217361,40.3190174
11,PV,1,1,11,48,1,2,0.8376476,43.0719091
12,PV,1,1,12,52,3,1,0.5578367,46.5365379
13,PV,1,1,13,48,5,1,0.3682706,51.7152328
14,PV,1,1,14,52,7,1,0.7318301,58.7107111
15,PV,1,1,15,52,0.3,,,68.0573743
16,PV,1,1,16,48,0.3,1,0.8092839,71.972405
17,PV,1,1,17,48,0.1,1,1.8418899,74.7068785
18,PV,1,1,18,20,0.5,1,0.5243394,78.2704575
19,PV,1,1,19,52,3,2,0.6637629,80.9176585
20,PV,1,1,20,52,0.3,1,1.0057308,86.1988246
21,PV,1,1,21,48,0.1,1,1.0330018,89.1305699
22,PV,1,1,22,10,0.75,1,0.61855,91.8799869
23,PV,1,1,23,10,0.5,1,0.6404837,94.8620423
24,PV,1,1,24,52,0.5,2,0.7728907,97.6272824
25,PV,1,1,25,48,5,1,0.517849,100.5253043
26,PV,1,1,26,52,5,2,0.672493,107.6574207
27,PV,1,1,27,52,7,1,0.5677355,114.9523836
28,PV,1,1,28,52,0.75,2,0.6771716,124.1495607
29,PV,1,1,29,48,1,1,0.6306194,127.1978338
30,PV,1,1,30,48,0.3,,,130.4460841
31,PV,1,1,31,48,0.3,2,1.7102875,134.3607617
32,PV,1,1,32,52,7,2,0.5619162,137.9921589
33,PV,1,1,33,80,0.5,2,0.8481817,147.1734652
34,PV,1,1,34,52,3,1,0.5342148,150.1376584
35,PV,1,1,35,48,3,1,0.5522249,155.2841028
36,PV,1,1,36,52,3,2,0.5813482,160.4500147
37,PV,1,1,37,52,0.3,2,1.3308412,165.6508306
38,PV,1,1,38,48,0.75,1,0.6808934,168.8957788
39,PV,1,1,39,52,1,1,0.7066445,171.9457949
40,PV,1,1,40,48,0.1,2,0.9377332,175.2756944
41,PV,1,1,41,52,7,1,0.8417664,177.9451717
42,PV,1,1,42,48,0.5,1,0.6577318,187.4034591
43,PV,1,1,43,80,0.3,2,0.6793211,190.187432
44,PV,1,1,44,80,0.75,2,0.6627685,192.7841585
45,PV,1,1,45,52,3,1,0.4926541,195.8179308
46,PV,1,1,46,52,5,2,0.8098346,200.9340952
47,PV,1,1,47,48,0.1,2,1.2267744,208.3611405
48,PV,1,1,48,52,0.5,1,0.6121582,211.3115187
49,PV,1,1,49,52,3,2,0.5839825,214.0418095
50,PV,1,1,50,52,0.75,1,0.9424471,219.2407545
51,PV,1,1,51,48,0.5,1,1.069879,222.555376
52,PV,1,1,52,52,0.1,2,0.7871435,225.7541877
53,PV,1,1,53,52,0.1,2,1.6607003,228.2781666
54,PV,1,1,54,20,0.75,1,0.5535529,231.6733512
55,PV,1,1,55,52,5,1,0.9509043,234.6018967
56,PV,1,1,56,52,1,2,0.4597284,242.1828831
57,PV,1,1,57,52,5,1,0.5706855,245.2604541
58,PV,1,1,58,52,1,1,1.3113222,252.4577201
59,PV,1,1,59,48,0.5,1,0.7145432,256.3936313
60,PV,1,1,60,48,3,1,0.5930094,259.2219058
61,PV,1,1,61,48,7,1,0.4729493,264.4358346
62,PV,1,1,62,52,0.3,2,1.0679359,273.533566
63,PV,1,1,63,52,0.75,2,1.4309649,276.5652113
64,PV,1,1,64,48,5,1,0.5518095,280.3656208
65,PV,1,1,65,48,1,1,0.7269691,287.5455625
66,PV,1,1,66,48,0.3,2,0.9750828,290.8905678
67,PV,1,1,67,90,0.3,2,0.6385819,293.7901405
68,PV,1,1,68,48,7,1,0.5605775,296.3564862
69,PV,1,1,69,48,0.75,2,1.2481104,305.5389886
70,PV,1,1,70,48,7,1,0.4719047,309.149712
71,PV,1,1,71,48,0.75,2,1.186685,318.2454966
72,PV,1,1,72,90,0.5,2,0.6462639,321.8102174
73,PV,1,1,73,52,1,1,0.5683036,324.5778932
74,PV,1,1,74,52,0.75,2,1.6393321,327.7778343
75,PV,1,1,75,48,0.3,1,0.9475042,331.7905068
76,PV,1,1,76,48,0.5,1,1.5504032,334.6562723
77,PV,1,1,77,48,3,1,0.7823776,338.3196888
78,PV,1,1,78,52,7,2,0.4655628,343.7176875
79,PV,1,1,79,52,0.1,2,1.1577283,352.7963937
80,PV,1,1,80,52,1,1,0.6193566,355.6791549
81,PV,1,1,81,52,7,2,0.489983,358.9142644
82,PV,1,1,82,52,0.3,1,1.148498,368.0266595
83,PV,1,1,83,52,5,1,0.4694934,371.0894634
84,PV,1,1,84,48,1,1,0.6337283,378.1845967
85,PV,1,1,85,52,3,2,0.6558814,381.4349289
86,PV,1,1,86,52,0.1,,,386.7146232
87,PV,1,1,87,52,1,1,0.9969234,390.4315425
88,PV,1,1,88,52,0.5,2,1.6878834,394.0450679
89,PV,1,1,89,48,7,1,0.4726791,397.8632346
90,PV,1,1,90,48,0.1,1,1.6903718,406.9595349
91,PV,1,1,91,48,0.75,2,0.9046719,410.3702115
92,PV,1,1,92,52,0.3,2,1.3460395,413.6520743
93,PV,1,1,93,52,0.1,,,416.9187525
94,PV,1,1,94,52,0.5,1,0.8686168,420.6321353
95,PV,1,1,95,48,0.5,1,0.7500253,423.6145408
96,PV,1,1,96,52,0.5,1,0.8284129,426.4822601
97,PV,1,1,97,52,0.5,2,1.4659996,429.4321808
98,PV,1,1,98,52,0.3,2,1.3978464,433.0119852
99,PV,1,1,99,52,5,1,0.7671485,436.326188
100,PV,1,1,100,52,0.75,1,0.4559461,443.7058226
101,PV,1,2,101,52,0.75,2,0.9718373,653.4790041
102,PV,1,2,102,48,0.75,1,0.7555621,656.8274251
103,PV,1,2,103,90,0.3,2,0.7190271,659.958805
104,PV,1,2,104,52,7,1,0.5912564,662.5953109
105,PV,1,2,105,52,0.1,2,0.7984373,671.803574
106,PV,1,2,106,52,5,2,1.2197846,674.3236853
107,PV,1,2,107,48,0.3,1,1.028279,682.1662424
108,PV,1,2,108,48,0.3,1,1.4514117,685.1142461
109,PV,1,2,109,52,0.5,2,1.5833471,688.4858686
110,PV,1,2,110,48,1,1,0.5831844,692.1949051
111,PV,1,2,111,52,0.5,2,1.1878022,695.393132
112,PV,1,2,112,48,3,1,0.4621442,698.7117275
113,PV,1,2,113,48,0.5,1,0.7273189,703.7910486
114,PV,1,2,114,48,0.75,2,0.5135861,706.6390136
115,PV,1,2,115,80,0.3,2,1.2887859,709.5208757
116,PV,1,2,116,52,0.1,1,1.4192963,712.7373173
117,PV,1,2,117,52,3,1,0.9246716,715.8851045
118,PV,1,2,118,52,7,2,0.9419135,721.4310536
119,PV,1,2,119,48,0.1,1,1.7542839,730.993903
120,PV,1,2,120,10,0.75,1,0.4757084,734.4751399
121,PV,1,2,121,52,3,2,0.8032829,737.3251457
122,PV,1,2,122,52,0.3,1,1.0828346,742.8052962
123,PV,1,2,123,48,0.5,1,1.042006,745.8051221
124,PV,1,2,124,80,0.75,2,0.8577998,748.9795344
125,PV,1,2,125,52,0.5,1,1.2062299,752.2036509
126,PV,1,2,126,48,5,1,0.7758537,755.5367608
127,PV,1,2,127,52,0.75,1,0.6109508,762.9299425
128,PV,1,2,128,52,3,2,1.0277731,765.912058
129,PV,1,2,129,48,0.3,1,0.7772165,771.5599486
130,PV,1,2,130,52,5,1,0.804705,774.2609559
131,PV,1,2,131,52,0.1,2,1.3045286,781.6880181
132,PV,1,2,132,52,0.5,1,0.6182655,784.7196808
133,PV,1,2,133,48,0.5,,,787.4556285
134,PV,1,2,134,48,3,1,0.5551065,791.5661904
135,PV,1,2,135,48,0.75,1,0.764191,796.7485374
136,PV,1,2,136,48,0.75,2,0.6380737,799.8805466
137,PV,1,2,137,52,0.3,1,0.9281601,802.8969607
138,PV,1,2,138,52,7,1,0.9998152,805.74442
139,PV,1,2,139,52,0.75,1,1.598788,815.3736014
140,PV,1,2,140,48,0.1,2,1.7756883,819.3380586
141,PV,1,2,141,48,5,1,0.4970562,822.8366359
142,PV,1,2,142,52,1,2,1.8937208,829.9499028
143,PV,1,2,143,48,1,,,834.4653386
144,PV,1,2,144,48,0.5,1,0.6895656,839.0797619
145,PV,1,2,145,48,7,1,0.6746323,841.8962224
146,PV,1,2,146,10,0.3,1,1.037116,851.1901473
147,PV,1,2,147,20,0.75,1,0.5762344,854.1560567
148,PV,1,2,148,48,7,1,0.6194027,857.104282
149,PV,1,2,149,48,0.5,1,1.0393816,866.3493337
150,PV,1,2,150,48,0.3,2,1.1633199,869.5169041
151,PV,1,2,151,48,0.1,2,1.2324855,872.5982123
152,PV,1,2,152,90,0.5,2,0.5553077,875.5457033
153,PV,1,2,153,48,0.1,1,1.0234692,878.2285369
154,PV,1,2,154,48,3,1,0.7139838,880.9769566
155,PV,1,2,155,52,0.3,2,0.9619664,886.312661
156,PV,1,2,156,52,0.5,2,1.642534,889.1904463
157,PV,1,2,157,48,7,1,0.6836653,892.9545083
158,PV,1,2,158,52,1,2,0.8364189,902.2506212
159,PV,1,2,159,52,5,1,1.3107059,905.7168318
160,PV,1,2,160,52,0.1,1,1.1092715,913.6464385
161,PV,1,2,161,10,0.5,1,0.6623094,916.4794975
162,PV,1,2,162,52,0.75,2,0.5416432,919.2620805
163,PV,1,2,163,52,0.5,1,1.6910996,922.1754264
164,PV,1,2,164,52,5,1,0.9774615,925.9900789
165,PV,1,2,165,52,1,2,1.0446457,933.5888144
166,PV,1,2,166,52,0.1,1,1.5878083,937.2531044
167,PV,1,2,167,80,0.5,2,0.6462917,940.5672277
168,PV,1,2,168,52,3,1,0.7765636,943.3357714
169,PV,1,2,169,52,7,1,0.5919789,948.7296158
170,PV,1,2,170,52,1,1,1.4933906,957.9452165
171,PV,1,2,171,52,5,2,0.7113116,962.0578951
172,PV,1,2,172,52,0.1,2,1.5185826,969.3878367
173,PV,1,2,173,48,7,1,1.7421523,972.6200101
174,PV,1,2,174,52,0.3,,,982.9811702
175,PV,1,2,175,52,0.3,2,1.7365853,986.896572
176,PV,1,2,176,52,0.75,1,0.5675654,990.5622811
177,PV,1,2,177,52,3,2,0.4964427,993.4928417
178,PV,1,2,178,48,5,1,0.4426705,998.6090249
179,PV,1,2,179,48,0.1,,,1005.670433
180,PV,1,2,180,48,1,1,0.4576517,1009.386669
181,PV,1,2,181,52,0.3,1,1.0557103,1012.467832
182,PV,1,2,182,90,0.75,2,1.0067494,1015.450804
183,PV,1,2,183,52,0.75,1,1.1213585,1018.833719
184,PV,1,2,184,20,0.5,1,1.4528081,1022.331199
185,PV,1,2,185,52,7,2,0.5534259,1025.91198
186,PV,1,2,186,48,0.3,1,0.7704897,1035.091132
187,PV,1,2,187,52,3,1,0.7024978,1037.794262
188,PV,1,2,188,52,3,1,0.5428632,1043.120508
189,PV,1,2,189,48,5,2,1.0080722,1048.285754
190,PV,1,2,190,52,0.75,1,0.797255,1055.915886
191,PV,1,2,191,48,1,1,1.1848019,1059.08093
192,PV,1,2,192,52,0.5,2,0.8420646,1062.878647
193,PV,1,2,193,52,7,1,1.2951651,1065.844285
194,PV,1,2,194,52,1,1,0.8065599,1075.756754
195,PV,1,2,195,48,3,1,0.7010599,1079.191515
196,PV,1,2,196,52,0.1,2,1.2000943,1084.519392
197,PV,1,2,197,52,1,1,0.6616173,1087.434545
198,PV,1,2,198,52,0.3,2,1.1281172,1090.719725
199,PV,1,2,199,52,1,1,1.0776243,1093.769391
200,PV,1,2,200,52,5,2,0.533269,1097.463318
201,PV,1,3,201,48,0.75,1,0.905905,4.6708683
202,PV,1,3,202,48,3,1,0.4891346,7.9673681
203,PV,1,3,203,52,1,1,1.0360222,13.0825193
204,PV,1,3,204,52,7,2,0.687008,16.7300205
205,PV,1,3,205,52,1,2,1.3446079,26.0430446
206,PV,1,3,206,52,0.3,,,30.0115075
207,PV,1,3,207,52,5,2,0.6095911,33.9249639
208,PV,1,3,208,10,0.3,1,0.8724605,41.1538193
209,PV,1,3,209,52,0.3,2,1.0793856,43.9571143
210,PV,1,3,210,52,0.1,2,1.422766,46.9521646
211,PV,1,3,211,52,0.1,2,1.3313765,50.1075728
212,PV,1,3,212,48,1,1,0.5652231,53.172525
213,PV,1,3,213,52,0.75,1,1.1357646,56.3692023
214,PV,1,3,214,48,0.3,1,1.176858,59.8782988
215,PV,1,3,215,48,0.1,2,1.1233514,62.9820555
216,PV,1,3,216,52,7,2,0.6118713,65.8262362
217,PV,1,3,217,52,0.75,1,1.0650803,75.0549099
218,PV,1,3,218,48,0.75,1,0.8413838,78.4859225
219,PV,1,3,219,80,0.5,2,0.7708442,81.7138027
220,PV,1,3,220,52,0.5,2,1.1669352,84.6003562
221,PV,1,3,221,52,0.5,1,0.7913,87.8896631
222,PV,1,3,222,10,0.5,1,1.0710799,90.7977109
223,PV,1,3,223,52,0.75,1,0.8356212,93.9952873
224,PV,1,3,224,48,0.1,1,1.6546243,97.1938183
225,PV,1,3,225,52,0.75,1,0.6735735,100.5594431
226,PV,1,3,226,52,0.1,2,1.7668894,103.6081495
227,PV,1,3,227,52,3,2,0.5662242,107.0893959
228,PV,1,3,228,52,0.3,2,1.7273448,112.2717904
229,PV,1,3,229,52,0.3,1,1.0096399,115.9192806
230,PV,1,3,230,52,0.5,2,1.9633857,118.8519817
231,PV,1,3,231,48,0.75,1,0.7059175,122.932933
232,PV,1,3,232,52,1,2,0.8253164,126.0157471
233,PV,1,3,233,48,0.3,1,0.7254135,129.4670521
234,PV,1,3,234,52,3,1,0.7477506,132.116537
235,PV,1,3,235,48,5,2,0.7470235,137.4768595
236,PV,1,3,236,48,0.3,1,1.0886148,144.8403766
237,PV,1,3,237,52,3,1,0.9340197,147.855133
238,PV,1,3,238,20,0.5,1,0.7392365,153.4039618
239,PV,1,3,239,52,1,2,0.8200494,156.2707186
240,PV,1,3,240,90,0.75,2,0.7017718,159.7172386
241,PV,1,3,241,52,7,1,1.2489132,162.7851496
242,PV,1,3,242,48,3,1,0.649666,172.6598698
243,PV,1,3,243,48,0.5,1,1.063893,177.9263895
244,PV,1,3,244,52,5,1,0.6569701,181.1072096
245,PV,1,3,245,90,0.5,2,0.7029789,188.3875066
246,PV,1,3,246,52,0.75,1,0.8881574,191.2043943
247,PV,1,3,247,52,5,1,0.5978181,194.4782971
248,PV,1,3,248,52,5,2,1.0893282,201.7044824
249,PV,1,3,249,48,0.5,1,1.6744732,209.4124135
250,PV,1,3,250,48,0.1,1,1.7394677,213.2108823
251,PV,1,3,251,48,3,1,0.5957169,216.6757852
252,PV,1,3,252,48,7,2,1.3465832,221.8891033
253,PV,1,3,253,48,7,2,0.8708494,231.8533451
254,PV,1,3,254,52,1,2,0.8379839,241.3507671
255,PV,1,3,255,48,3,1,0.4978297,244.8129424
256,PV,1,3,256,48,0.5,1,1.1636626,249.9261163
257,PV,1,3,257,52,5,2,0.550553,253.2098981
258,PV,1,3,258,48,7,1,0.5356609,260.3718506
259,PV,1,3,259,10,0.75,1,0.6735396,269.5349879
260,PV,1,3,260,52,7,2,0.4582286,272.5826117
261,PV,1,3,261,52,0.3,1,0.8034843,281.6620301
262,PV,1,3,262,48,1,2,0.6461283,284.3803748
263,PV,1,3,263,48,0.5,2,0.7632724,287.6821499
264,PV,1,3,264,48,5,1,0.4379644,290.5581696
265,PV,1,3,265,90,0.3,2,0.8762785,297.6216228
266,PV,1,3,266,52,3,1,0.5161288,300.4257236
267,PV,1,3,267,48,0.75,2,0.5895773,305.5671724
268,PV,1,3,268,48,0.3,1,0.9531762,308.5346544
269,PV,1,3,269,48,1,1,1.0132713,311.4170069
270,PV,1,3,270,52,0.5,2,0.6611632,315.0482869
271,PV,1,3,271,52,0.1,1,1.1946591,317.8297465
272,PV,1,3,272,48,5,2,0.9685278,320.7447066
273,PV,1,3,273,52,0.3,2,1.718061,328.3255022
274,PV,1,3,274,52,0.5,1,0.8557667,331.9581872
275,PV,1,3,275,52,0.1,2,1.3333655,334.9388106
276,PV,1,3,276,52,0.3,2,1.1678779,337.9873393
277,PV,1,3,277,52,1,2,0.8494096,341.0832548
278,PV,1,3,278,52,0.75,1,1.2268434,344.5526854
279,PV,1,3,279,52,0.5,2,1.6215886,348.1496892
280,PV,1,3,280,52,0.5,2,0.7828154,351.898567
281,PV,1,3,281,48,5,2,0.5401606,354.7969961
282,PV,1,3,282,52,3,1,0.9283153,361.9602492
283,PV,1,3,283,52,3,2,1.6781278,367.5081556
284,PV,1,3,284,80,0.75,2,1.5282992,373.8042867
285,PV,1,3,285,48,0.3,1,0.7637293,377.7025529
286,PV,1,3,286,52,0.75,1,0.9395498,380.3886812
287,PV,1,3,287,80,0.3,2,0.6800597,383.7027185
288,PV,1,3,288,48,0.1,1,1.2940631,386.2993432
289,PV,1,3,289,52,7,2,1.0366951,389.3149274
290,PV,1,3,290,48,1,1,0.480542,398.976548
291,PV,1,3,291,52,0.1,2,0.8115802,402.0764182
292,PV,1,3,292,48,7,1,0.6027279,404.6114015
293,PV,1,3,293,52,7,1,1.0753311,413.8383015
294,PV,1,3,294,52,1,2,0.6343824,423.5323519
295,PV,1,3,295,52,3,2,0.6378622,426.7817891
296,PV,1,3,296,48,0.5,1,0.5636223,432.045344
297,PV,1,3,297,48,0.1,1,1.4556399,434.7313845
298,PV,1,3,298,20,0.75,1,0.8106191,437.9139148
299,PV,1,3,299,52,5,2,0.50751,441.0957462
300,PV,1,3,300,52,0.1,2,1.191918,448.221359
301,PV,1,4,301,48,0.3,2,1.8455022,537.3303981
302,PV,1,4,302,52,0.3,2,0.7858858,541.0958534
303,PV,1,4,303,48,0.75,1,0.6924292,543.7989634
304,PV,1,4,304,48,7,2,0.6301504,546.8665376
305,PV,1,4,305,48,0.5,1,0.8366737,556.1231184
306,PV,1,4,306,52,0.1,2,0.8938604,559.0725311
307,PV,1,4,307,80,0.5,2,0.6302764,561.6934747
308,PV,1,4,308,48,3,2,1.1538714,564.4349697
309,PV,1,4,309,52,5,1,1.2479511,570.200703
310,PV,1,4,310,52,7,2,1.7091354,578.066731
311,PV,1,4,311,48,1,1,0.5909008,588.3920317
312,PV,1,4,312,52,0.75,1,1.0515147,591.6066408
313,PV,1,4,313,52,1,2,1.104742,595.0213577
314,PV,1,4,314,52,7,2,0.8355428,598.7542059
315,PV,1,4,315,48,1,1,0.5695573,608.2157574
316,PV,1,4,316,48,0.1,2,1.5587474,611.3979929
317,PV,1,4,317,48,0.3,1,0.7838159,614.6798646
318,PV,1,4,318,52,0.5,2,0.8229679,617.3826972
319,PV,1,4,319,52,5,2,1.4183293,620.3276247
320,PV,1,4,320,48,5,1,0.6056961,628.3770367
321,PV,1,4,321,52,0.1,2,1.0624818,635.6042403
322,PV,1,4,322,48,0.75,1,0.7356723,638.3883606
323,PV,1,4,323,48,0.5,,,641.5080749
324,PV,1,4,324,48,5,1,0.4608338,645.6203491
325,PV,1,4,325,10,0.75,1,0.647304,652.69897
326,PV,1,4,326,48,5,1,0.7266361,655.7118632
327,PV,1,4,327,10,0.5,1,0.4215311,663.0586727
328,PV,1,4,328,52,1,2,0.7499167,665.6135405
329,PV,1,4,329,52,5,2,0.6899171,668.9926301
330,PV,1,4,330,52,3,2,0.7392664,676.3024236
331,PV,1,4,331,52,1,1,1.6000632,681.6662176
332,PV,1,4,332,52,0.1,2,0.9793114,685.8818409
333,PV,1,4,333,52,0.75,2,0.5720526,688.5871513
334,PV,1,4,334,52,0.1,2,0.8714202,691.5329762
335,PV,1,4,335,48,0.75,2,0.9906,694.1279587
336,PV,1,4,336,52,7,1,1.5787188,697.496115
337,PV,1,4,337,52,0.75,2,1.1644114,707.6954655
338,PV,1,4,338,48,0.1,2,1.426303,711.2375442
339,PV,1,4,339,48,1,1,0.4850147,714.3857982
340,PV,1,4,340,80,0.3,2,0.6975058,717.484165
341,PV,1,4,341,52,0.5,,,720.1061451
342,PV,1,4,342,52,5,1,0.9658787,724.2147459
343,PV,1,4,343,52,0.75,1,0.6280195,731.79415
344,PV,1,4,344,48,7,1,0.7668481,734.7929356
345,PV,1,4,345,48,0.5,,,744.1726396
346,PV,1,4,346,52,0.75,2,1.1172842,748.287516
347,PV,1,4,347,52,5,1,0.8414466,751.7716513
348,PV,1,4,348,52,1,2,1.5532931,759.2327655
349,PV,1,4,349,52,1,2,1.4188095,763.3955477
350,PV,1,4,350,52,0.5,1,1.1348702,767.4333654
351,PV,1,4,351,52,7,1,0.6760207,770.6961044
352,PV,1,4,352,48,3,1,0.7695285,779.9905006
353,PV,1,4,353,52,7,2,0.5510471,785.3716328
354,PV,1,4,354,52,0.3,1,0.8296576,794.5505945
355,PV,1,4,355,52,0.3,,,797.3006274
356,PV,1,4,356,90,0.75,2,0.6920824,801.2140287
357,PV,1,4,357,52,0.5,1,0.8249376,804.2785438
358,PV,1,4,358,90,0.3,2,0.8141803,807.2275526
359,PV,1,4,359,52,3,2,1.1935768,809.9599157
360,PV,1,4,360,48,0.3,1,0.9491157,815.7733373
361,PV,1,4,361,52,0.5,1,0.7822588,818.6403193
362,PV,1,4,362,48,0.3,1,1.2828173,821.537753
363,PV,1,4,363,52,7,2,0.7945733,824.7400295
364,PV,1,4,364,52,0.5,2,0.8636918,834.1490068
365,PV,1,4,365,52,0.3,2,1.0410918,837.1304338
366,PV,1,4,366,48,7,1,0.4853521,840.0956528
367,PV,1,4,367,48,0.1,1,1.9504438,849.1932046
368,PV,1,4,368,48,0.1,2,1.3081206,852.8607113
369,PV,1,4,369,52,0.1,2,1.0748189,855.8890067
370,PV,1,4,370,20,0.5,1,0.4539595,858.6893375
371,PV,1,4,371,52,0.3,2,0.6961597,861.2693805
372,PV,1,4,372,48,0.3,2,1.0573579,863.8850872
373,PV,1,4,373,20,0.75,1,0.8359187,866.8681326
374,PV,1,4,374,52,0.3,2,1.8145892,870.0664166
375,PV,1,4,375,52,5,1,0.710173,873.797013
376,PV,1,4,376,52,0.75,2,0.8750516,881.1277207
377,PV,1,4,377,48,3,1,0.4896174,884.3779561
378,PV,1,4,378,52,3,2,0.606405,889.4897586
379,PV,1,4,379,52,1,1,0.9786,894.721648
380,PV,1,4,380,48,0.5,1,1.6667642,898.3206778
381,PV,1,4,381,52,3,2,0.4814811,902.1032137
382,PV,1,4,382,52,0.1,2,0.8148927,907.1989725
383,PV,1,4,383,48,0.1,2,1.2802873,909.7359599
384,PV,1,4,384,52,3,1,0.6619595,912.7303827
385,PV,1,4,385,52,0.3,1,1.425703,918.0105172
386,PV,1,4,386,48,7,1,0.5082482,921.3595244
387,PV,1,4,387,10,0.3,1,0.8639431,930.4908726
388,PV,1,4,388,48,1,1,1.0863676,933.2727673
389,PV,1,4,389,52,1,1,0.5673291,936.9861017
390,PV,1,4,390,52,0.75,2,1.1840629,940.167921
391,PV,1,4,391,48,0.75,1,0.5787105,943.7161695
392,PV,1,4,392,48,0.5,1,1.011247,946.6651693
393,PV,1,4,393,52,0.5,2,0.7963359,949.8022877
394,PV,1,4,394,90,0.5,2,0.6013278,952.7117558
395,PV,1,4,395,52,3,1,0.9496059,955.4277406
396,PV,1,4,396,52,0.1,2,0.9525048,960.992683
397,PV,1,4,397,80,0.75,2,1.4428948,963.6614207
398,PV,1,4,398,52,3,2,0.8556481,967.4719061
399,PV,1,4,399,48,5,1,0.5810299,972.955092
400,PV,1,4,400,48,3,1,0.8405734,980.149771
