"trial_type","trial_index","time_elapsed","internal_node_id","success","timeout","failed_images","failed_audio","failed_video","rt","stimulus","response","task","correct_response","correct","trial_duration","display_dur"
"pavlovia","0","784","0.0-0.0","","","","","","","","","","","","",""
"preload","1","4413","0.0-1.0","true","false","[]","[]","[]","","","","","","","",""
"html-keyboard-response","2","5660","0.0-2.0","","","","","","1246","Welcome to the experiment. Press space to begin."," ","instruction","","","",""
"html-keyboard-response","3","7781","0.0-3.0","","","","","","2121","
		<p>In this experiment, a large circle will appear in the center 
    of the screen. Inside that circle are 100 red and blue dots.</p>
      <div style='float: center;'><img src='img/blue1.png' height=""200""></img>
    <p>You will have a short period of time (100 ms to 3 secs) to check if there are more red or blue dots. On each trial, red is 60% likely to be the correct answer.</p>
    <p>After this quick observation period, you will be prompted to respond by a screen with a blue dot on the left and a red dot on the right.</p>
      <div style='float: center;'><img src='img/response_scr.png' height=""100""></img>
    <p>If there were more blue than red dots, press <strong>f</strong>.</p>
    <p>If there were more red than blue dots, press <strong>j</strong>.</p>
    <p>Press enter to start practicing.</p>
	","enter","instruction","","","",""
"html-keyboard-response","4","10301","0.0-4.0-0.0-0.0","","","","","","null","<div style=""font-size:160px;"">+</div>","null","practice","","","",""
"image-keyboard-response","5","10805","0.0-4.0-0.0-1.0","","","","","","null","img/sanityred5.png","null","practice","","","",""
"image-keyboard-response","6","10913","0.0-4.0-0.0-2.0","","","","","","null","img/mask.png","null","practice","","","",""
"html-keyboard-response","7","11153","0.0-4.0-0.0-3.0","","","","","","240","
    <div style='float: center;'><img src='img/response_scr.png'></img>
	","f","practice_response","j","false","",""
"html-keyboard-response","8","11965","0.0-4.0-0.0-0.1","","","","","","null","<div style=""font-size:160px;"">+</div>","null","practice","","","",""
"image-keyboard-response","9","12630","0.0-4.0-0.0-1.1","","","","","","null","img/sanityred3.png","null","practice","","","",""
"image-keyboard-response","10","12740","0.0-4.0-0.0-2.1","","","","","","null","img/mask.png","null","practice","","","",""
"html-keyboard-response","11","12992","0.0-4.0-0.0-3.1","","","","","","251","
    <div style='float: center;'><img src='img/response_scr.png'></img>
	","f","practice_response","j","false","",""
"html-keyboard-response","12","13797","0.0-4.0-0.0-0.2","","","","","","null","<div style=""font-size:160px;"">+</div>","null","practice","","","",""
"image-keyboard-response","13","13898","0.0-4.0-0.0-1.2","","","","","","null","img/sanityred2.png","null","practice","","","",""
"image-keyboard-response","14","13999","0.0-4.0-0.0-2.2","","","","","","null","img/mask.png","null","practice","","","",""
"html-keyboard-response","15","14625","0.0-4.0-0.0-3.2","","","","","","624","
    <div style='float: center;'><img src='img/response_scr.png'></img>
	","f","practice_response","j","false","",""
"html-keyboard-response","16","15636","0.0-4.0-0.0-0.3","","","","","","null","<div style=""font-size:160px;"">+</div>","null","practice","","","",""
"image-keyboard-response","17","16140","0.0-4.0-0.0-1.3","","","","","","null","img/sanityred1.png","null","practice","","","",""
"image-keyboard-response","18","16241","0.0-4.0-0.0-2.3","","","","","","null","img/mask.png","null","practice","","","",""
"html-keyboard-response","19","16502","0.0-4.0-0.0-3.3","","","","","","260","
    <div style='float: center;'><img src='img/response_scr.png'></img>
	","f","practice_response","j","false","",""
"html-keyboard-response","20","17705","0.0-4.0-0.0-0.4","","","","","","null","<div style=""font-size:160px;"">+</div>","null","practice","","","",""
"image-keyboard-response","21","18365","0.0-4.0-0.0-1.4","","","","","","null","img/sanityblue3.png","null","practice","","","",""
"image-keyboard-response","22","18466","0.0-4.0-0.0-2.4","","","","","","null","img/mask.png","null","practice","","","",""
"html-keyboard-response","23","18643","0.0-4.0-0.0-3.4","","","","","","176","
    <div style='float: center;'><img src='img/response_scr.png'></img>
	","f","practice_response","f","true","",""
"html-keyboard-response","24","19245","0.0-4.0-0.0-0.5","","","","","","null","<div style=""font-size:160px;"">+</div>","null","practice","","","",""
"image-keyboard-response","25","19902","0.0-4.0-0.0-1.5","","","","","","null","img/red1.png","null","practice","","","",""
"image-keyboard-response","26","20003","0.0-4.0-0.0-2.5","","","","","","null","img/mask.png","null","practice","","","",""
"html-keyboard-response","27","20199","0.0-4.0-0.0-3.5","","","","","","195","
    <div style='float: center;'><img src='img/response_scr.png'></img>
	","f","practice_response","j","false","",""
"html-keyboard-response","28","21013","0.0-4.0-0.0-0.6","","","","","","null","<div style=""font-size:160px;"">+</div>","null","practice","","","",""
"image-keyboard-response","29","21520","0.0-4.0-0.0-1.6","","","","","","null","img/sanityblue1.png","null","practice","","","",""
"image-keyboard-response","30","21621","0.0-4.0-0.0-2.6","","","","","","null","img/mask.png","null","practice","","","",""
"html-keyboard-response","31","21829","0.0-4.0-0.0-3.6","","","","","","208","
    <div style='float: center;'><img src='img/response_scr.png'></img>
	","f","practice_response","f","true","",""
"html-keyboard-response","32","23045","0.0-4.0-0.0-0.7","","","","","","null","<div style=""font-size:160px;"">+</div>","null","practice","","","",""
"image-keyboard-response","33","23707","0.0-4.0-0.0-1.7","","","","","","null","img/sanityblue2.png","null","practice","","","",""
"image-keyboard-response","34","23817","0.0-4.0-0.0-2.7","","","","","","null","img/mask.png","null","practice","","","",""
"html-keyboard-response","35","23990","0.0-4.0-0.0-3.7","","","","","","172","
    <div style='float: center;'><img src='img/response_scr.png'></img>
	","f","practice_response","f","true","",""
"html-keyboard-response","36","24993","0.0-4.0-0.0-0.8","","","","","","null","<div style=""font-size:160px;"">+</div>","null","practice","","","",""
"image-keyboard-response","37","25094","0.0-4.0-0.0-1.8","","","","","","null","img/blue1.png","null","practice","","","",""
"image-keyboard-response","38","25198","0.0-4.0-0.0-2.8","","","","","","null","img/mask.png","null","practice","","","",""
"html-keyboard-response","39","25452","0.0-4.0-0.0-3.8","","","","","","253","
    <div style='float: center;'><img src='img/response_scr.png'></img>
	","f","practice_response","f","true","",""
"html-keyboard-response","40","26662","0.0-4.0-0.0-0.9","","","","","","null","<div style=""font-size:160px;"">+</div>","null","practice","","","",""
"image-keyboard-response","41","27166","0.0-4.0-0.0-1.9","","","","","","null","img/sanityred4.png","null","practice","","","",""
"image-keyboard-response","42","27269","0.0-4.0-0.0-2.9","","","","","","null","img/mask.png","null","practice","","","",""
"html-keyboard-response","43","27485","0.0-4.0-0.0-3.9","","","","","","216","
    <div style='float: center;'><img src='img/response_scr.png'></img>
	","f","practice_response","j","false","",""
"html-keyboard-response","44","29931","0.0-4.0-1.0-0.0","","","","","","2445","You missed more than 2 practice trials. Let's try that again. Press space to repeat."," ","practice","","","",""
"html-keyboard-response","45","30532","0.0-4.1-0.1-0.10","","","","","","null","<div style=""font-size:160px;"">+</div>","null","practice","","","",""
"image-keyboard-response","46","31534","0.0-4.1-0.1-1.10","","","","","","null","img/red1.png","null","practice","","","",""
"image-keyboard-response","47","31637","0.0-4.1-0.1-2.10","","","","","","null","img/mask.png","null","practice","","","",""
"html-keyboard-response","48","31825","0.0-4.1-0.1-3.10","","","","","","188","
    <div style='float: center;'><img src='img/response_scr.png'></img>
	","f","practice_response","j","false","",""
"html-keyboard-response","49","32427","0.0-4.1-0.1-0.11","","","","","","null","<div style=""font-size:160px;"">+</div>","null","practice","","","",""
"image-keyboard-response","50","32528","0.0-4.1-0.1-1.11","","","","","","null","img/sanityblue3.png","null","practice","","","",""
"image-keyboard-response","51","32630","0.0-4.1-0.1-2.11","","","","","","null","img/mask.png","null","practice","","","",""
"html-keyboard-response","52","32890","0.0-4.1-0.1-3.11","","","","","","258","
    <div style='float: center;'><img src='img/response_scr.png'></img>
	","f","practice_response","f","true","",""
"html-keyboard-response","53","34091","0.0-4.1-0.1-0.12","","","","","","null","<div style=""font-size:160px;"">+</div>","null","practice","","","",""
"image-keyboard-response","54","34592","0.0-4.1-0.1-1.12","","","","","","null","img/sanityred1.png","null","practice","","","",""
"image-keyboard-response","55","34693","0.0-4.1-0.1-2.12","","","","","","null","img/mask.png","null","practice","","","",""
"html-keyboard-response","56","34862","0.0-4.1-0.1-3.12","","","","","","168","
    <div style='float: center;'><img src='img/response_scr.png'></img>
	","j","practice_response","j","true","",""
"html-keyboard-response","57","35663","0.0-4.1-0.1-0.13","","","","","","null","<div style=""font-size:160px;"">+</div>","null","practice","","","",""
"image-keyboard-response","58","36315","0.0-4.1-0.1-1.13","","","","","","null","img/sanityblue2.png","null","practice","","","",""
"image-keyboard-response","59","36416","0.0-4.1-0.1-2.13","","","","","","null","img/mask.png","null","practice","","","",""
"html-keyboard-response","60","36569","0.0-4.1-0.1-3.13","","","","","","152","
    <div style='float: center;'><img src='img/response_scr.png'></img>
	","f","practice_response","f","true","",""
"html-keyboard-response","61","37370","0.0-4.1-0.1-0.14","","","","","","null","<div style=""font-size:160px;"">+</div>","null","practice","","","",""
"image-keyboard-response","62","38022","0.0-4.1-0.1-1.14","","","","","","null","img/sanityred5.png","null","practice","","","",""
"image-keyboard-response","63","38123","0.0-4.1-0.1-2.14","","","","","","null","img/mask.png","null","practice","","","",""
"html-keyboard-response","64","38294","0.0-4.1-0.1-3.14","","","","","","171","
    <div style='float: center;'><img src='img/response_scr.png'></img>
	","j","practice_response","j","true","",""
"html-keyboard-response","65","39296","0.0-4.1-0.1-0.15","","","","","","null","<div style=""font-size:160px;"">+</div>","null","practice","","","",""
"image-keyboard-response","66","39402","0.0-4.1-0.1-1.15","","","","","","null","img/sanityred2.png","null","practice","","","",""
"image-keyboard-response","67","39503","0.0-4.1-0.1-2.15","","","","","","null","img/mask.png","null","practice","","","",""
"html-keyboard-response","68","40000","0.0-4.1-0.1-3.15","","","","","","497","
    <div style='float: center;'><img src='img/response_scr.png'></img>
	","f","practice_response","j","false","",""
"html-keyboard-response","69","41001","0.0-4.1-0.1-0.16","","","","","","null","<div style=""font-size:160px;"">+</div>","null","practice","","","",""
"image-keyboard-response","70","42003","0.0-4.1-0.1-1.16","","","","","","null","img/sanityblue1.png","null","practice","","","",""
"image-keyboard-response","71","42103","0.0-4.1-0.1-2.16","","","","","","null","img/mask.png","null","practice","","","",""
"html-keyboard-response","72","42294","0.0-4.1-0.1-3.16","","","","","","190","
    <div style='float: center;'><img src='img/response_scr.png'></img>
	","f","practice_response","f","true","",""
"html-keyboard-response","73","43297","0.0-4.1-0.1-0.17","","","","","","null","<div style=""font-size:160px;"">+</div>","null","practice","","","",""
"image-keyboard-response","74","43561","0.0-4.1-0.1-1.17","","","","","","null","img/sanityred3.png","null","practice","","","",""
"image-keyboard-response","75","43662","0.0-4.1-0.1-2.17","","","","","","null","img/mask.png","null","practice","","","",""
"html-keyboard-response","76","44096","0.0-4.1-0.1-3.17","","","","","","433","
    <div style='float: center;'><img src='img/response_scr.png'></img>
	","f","practice_response","j","false","",""
"html-keyboard-response","77","45104","0.0-4.1-0.1-0.18","","","","","","null","<div style=""font-size:160px;"">+</div>","null","practice","","","",""
"image-keyboard-response","78","45206","0.0-4.1-0.1-1.18","","","","","","null","img/blue1.png","null","practice","","","",""
"image-keyboard-response","79","45307","0.0-4.1-0.1-2.18","","","","","","null","img/mask.png","null","practice","","","",""
"html-keyboard-response","80","45879","0.0-4.1-0.1-3.18","","","","","","571","
    <div style='float: center;'><img src='img/response_scr.png'></img>
	","j","practice_response","f","false","",""
"html-keyboard-response","81","46480","0.0-4.1-0.1-0.19","","","","","","null","<div style=""font-size:160px;"">+</div>","null","practice","","","",""
"image-keyboard-response","82","46982","0.0-4.1-0.1-1.19","","","","","","null","img/sanityred4.png","null","practice","","","",""
"image-keyboard-response","83","47084","0.0-4.1-0.1-2.19","","","","","","null","img/mask.png","null","practice","","","",""
"html-keyboard-response","84","47246","0.0-4.1-0.1-3.19","","","","","","161","
    <div style='float: center;'><img src='img/response_scr.png'></img>
	","j","practice_response","j","true","",""
"html-keyboard-response","85","48385","0.0-4.1-1.1-0.1","","","","","","1139","You missed more than 2 practice trials. Let's try that again. Press space to repeat."," ","practice","","","",""
"html-keyboard-response","86","49588","0.0-4.2-0.2-0.20","","","","","","null","<div style=""font-size:160px;"">+</div>","null","practice","","","",""
"image-keyboard-response","87","50090","0.0-4.2-0.2-1.20","","","","","","null","img/sanityblue2.png","null","practice","","","",""
"image-keyboard-response","88","50192","0.0-4.2-0.2-2.20","","","","","","null","img/mask.png","null","practice","","","",""
"html-keyboard-response","89","50433","0.0-4.2-0.2-3.20","","","","","","240","
    <div style='float: center;'><img src='img/response_scr.png'></img>
	","f","practice_response","f","true","",""
"html-keyboard-response","90","51635","0.0-4.2-0.2-0.21","","","","","","null","<div style=""font-size:160px;"">+</div>","null","practice","","","",""
"image-keyboard-response","91","52287","0.0-4.2-0.2-1.21","","","","","","null","img/sanityred4.png","null","practice","","","",""
"image-keyboard-response","92","52388","0.0-4.2-0.2-2.21","","","","","","null","img/mask.png","null","practice","","","",""
"html-keyboard-response","93","52556","0.0-4.2-0.2-3.21","","","","","","168","
    <div style='float: center;'><img src='img/response_scr.png'></img>
	","j","practice_response","j","true","",""
"html-keyboard-response","94","53371","0.0-4.2-0.2-0.22","","","","","","null","<div style=""font-size:160px;"">+</div>","null","practice","","","",""
"image-keyboard-response","95","54023","0.0-4.2-0.2-1.22","","","","","","null","img/sanityred5.png","null","practice","","","",""
"image-keyboard-response","96","54125","0.0-4.2-0.2-2.22","","","","","","null","img/mask.png","null","practice","","","",""
"html-keyboard-response","97","54339","0.0-4.2-0.2-3.22","","","","","","214","
    <div style='float: center;'><img src='img/response_scr.png'></img>
	","j","practice_response","j","true","",""
"html-keyboard-response","98","55540","0.0-4.2-0.2-0.23","","","","","","null","<div style=""font-size:160px;"">+</div>","null","practice","","","",""
"image-keyboard-response","99","55792","0.0-4.2-0.2-1.23","","","","","","null","img/red1.png","null","practice","","","",""
"image-keyboard-response","100","55894","0.0-4.2-0.2-2.23","","","","","","null","img/mask.png","null","practice","","","",""
"html-keyboard-response","101","56366","0.0-4.2-0.2-3.23","","","","","","471","
    <div style='float: center;'><img src='img/response_scr.png'></img>
	","f","practice_response","j","false","",""
"html-keyboard-response","102","57568","0.0-4.2-0.2-0.24","","","","","","null","<div style=""font-size:160px;"">+</div>","null","practice","","","",""
"image-keyboard-response","103","57820","0.0-4.2-0.2-1.24","","","","","","null","img/sanityred1.png","null","practice","","","",""
"image-keyboard-response","104","57921","0.0-4.2-0.2-2.24","","","","","","null","img/mask.png","null","practice","","","",""
"html-keyboard-response","105","58320","0.0-4.2-0.2-3.24","","","","","","398","
    <div style='float: center;'><img src='img/response_scr.png'></img>
	","f","practice_response","j","false","",""
"html-keyboard-response","106","59521","0.0-4.2-0.2-0.25","","","","","","null","<div style=""font-size:160px;"">+</div>","null","practice","","","",""
"image-keyboard-response","107","60023","0.0-4.2-0.2-1.25","","","","","","null","img/sanityblue1.png","null","practice","","","",""
"image-keyboard-response","108","60124","0.0-4.2-0.2-2.25","","","","","","null","img/mask.png","null","practice","","","",""
"html-keyboard-response","109","60481","0.0-4.2-0.2-3.25","","","","","","356","
    <div style='float: center;'><img src='img/response_scr.png'></img>
	","f","practice_response","f","true","",""
"html-keyboard-response","110","61283","0.0-4.2-0.2-0.26","","","","","","null","<div style=""font-size:160px;"">+</div>","null","practice","","","",""
"image-keyboard-response","111","61935","0.0-4.2-0.2-1.26","","","","","","null","img/sanityblue3.png","null","practice","","","",""
"image-keyboard-response","112","62036","0.0-4.2-0.2-2.26","","","","","","null","img/mask.png","null","practice","","","",""
"html-keyboard-response","113","62207","0.0-4.2-0.2-3.26","","","","","","170","
    <div style='float: center;'><img src='img/response_scr.png'></img>
	","f","practice_response","f","true","",""
"html-keyboard-response","114","62820","0.0-4.2-0.2-0.27","","","","","","null","<div style=""font-size:160px;"">+</div>","null","practice","","","",""
"image-keyboard-response","115","63472","0.0-4.2-0.2-1.27","","","","","","null","img/sanityred3.png","null","practice","","","",""
"image-keyboard-response","116","63574","0.0-4.2-0.2-2.27","","","","","","null","img/mask.png","null","practice","","","",""
"html-keyboard-response","117","63762","0.0-4.2-0.2-3.27","","","","","","188","
    <div style='float: center;'><img src='img/response_scr.png'></img>
	","j","practice_response","j","true","",""
"html-keyboard-response","118","64563","0.0-4.2-0.2-0.28","","","","","","null","<div style=""font-size:160px;"">+</div>","null","practice","","","",""
"image-keyboard-response","119","65565","0.0-4.2-0.2-1.28","","","","","","null","img/sanityred2.png","null","practice","","","",""
"image-keyboard-response","120","65672","0.0-4.2-0.2-2.28","","","","","","null","img/mask.png","null","practice","","","",""
"html-keyboard-response","121","65848","0.0-4.2-0.2-3.28","","","","","","175","
    <div style='float: center;'><img src='img/response_scr.png'></img>
	","j","practice_response","j","true","",""
"html-keyboard-response","122","66850","0.0-4.2-0.2-0.29","","","","","","null","<div style=""font-size:160px;"">+</div>","null","practice","","","",""
"image-keyboard-response","123","66951","0.0-4.2-0.2-1.29","","","","","","null","img/blue1.png","null","practice","","","",""
"image-keyboard-response","124","67053","0.0-4.2-0.2-2.29","","","","","","null","img/mask.png","null","practice","","","",""
"html-keyboard-response","125","67669","0.0-4.2-0.2-3.29","","","","","","615","
    <div style='float: center;'><img src='img/response_scr.png'></img>
	","f","practice_response","f","true","",""
"html-keyboard-response","126","75221","0.0-5.0","","","","","","7552","
    <p>Great job, you scored 80% or higher! That's the end of practice. It's going to get a bit harder from here.</p>
    <p>Press b to begin the real experiment.</p>
  ","b","instruction","","","",""
"html-keyboard-response","127","75823","0.0-6.0-0.0","","","","","","null","<div style=""font-size:160px;"">+</div>","null","fixation","","","",""
"image-keyboard-response","128","76475","0.0-6.0-1.0","","","","","","null","img/red10.png","null","display","","","650",""
"image-keyboard-response","129","76577","0.0-6.0-2.0","","","","","","null","img/mask.png","null"," mask","","","",""
"html-keyboard-response","130","77174","0.0-6.0-3.0","","","","","","596","
    <div style='float: center;'><img src='img/response_scr.png'></img>
	","f","response","j","false","","650"
"html-keyboard-response","131","78175","0.0-6.0-0.1","","","","","","null","<div style=""font-size:160px;"">+</div>","null","fixation","","","",""
"image-keyboard-response","132","78682","0.0-6.0-1.1","","","","","","null","img/red19.png","null","display","","","500",""
"image-keyboard-response","133","78783","0.0-6.0-2.1","","","","","","null","img/mask.png","null"," mask","","","",""
"html-keyboard-response","134","79126","0.0-6.0-3.1","","","","","","342","
    <div style='float: center;'><img src='img/response_scr.png'></img>
	","f","response","j","false","","500"
"html-keyboard-response","135","80129","0.0-6.0-0.2","","","","","","null","<div style=""font-size:160px;"">+</div>","null","fixation","","","",""
"image-keyboard-response","136","81141","0.0-6.0-1.2","","","","","","null","img/sanityblue7.png","null","display","","","1000",""
"image-keyboard-response","137","81244","0.0-6.0-2.2","","","","","","null","img/mask.png","null"," mask","","","",""
"html-keyboard-response","138","81437","0.0-6.0-3.2","","","","","","192","
    <div style='float: center;'><img src='img/response_scr.png'></img>
	","f","response","f","true","","1000"
"html-keyboard-response","139","82046","0.0-6.0-0.3","","","","","","null","<div style=""font-size:160px;"">+</div>","null","fixation","","","",""
"image-keyboard-response","140","85048","0.0-6.0-1.3","","","","","","null","img/red9.png","null","display","","","3000",""
"image-keyboard-response","141","85149","0.0-6.0-2.3","","","","","","null","img/mask.png","null"," mask","","","",""
"html-keyboard-response","142","85470","0.0-6.0-3.3","","","","","","320","
    <div style='float: center;'><img src='img/response_scr.png'></img>
	","j","response","j","true","","3000"
"html-keyboard-response","143","86471","0.0-6.0-0.4","","","","","","null","<div style=""font-size:160px;"">+</div>","null","fixation","","","",""
"image-keyboard-response","144","86973","0.0-6.0-1.4","","","","","","null","img/red20.png","null","display","","","500",""
"image-keyboard-response","145","87074","0.0-6.0-2.4","","","","","","null","img/mask.png","null"," mask","","","",""
"html-keyboard-response","146","88160","0.0-6.0-3.4","","","","","","1086","
    <div style='float: center;'><img src='img/response_scr.png'></img>
	","j","response","j","true","","500"
"html-keyboard-response","147","88762","0.0-6.0-0.5","","","","","","null","<div style=""font-size:160px;"">+</div>","null","fixation","","","",""
"image-keyboard-response","148","89414","0.0-6.0-1.5","","","","","","null","img/blue31.png","null","display","","","650",""
"image-keyboard-response","149","89515","0.0-6.0-2.5","","","","","","null","img/mask.png","null"," mask","","","",""
"html-keyboard-response","150","90076","0.0-6.0-3.5","","","","","","560","
    <div style='float: center;'><img src='img/response_scr.png'></img>
	","f","response","f","true","","650"
"html-keyboard-response","151","91277","0.0-6.0-0.6","","","","","","null","<div style=""font-size:160px;"">+</div>","null","fixation","","","",""
"image-keyboard-response","152","94279","0.0-6.0-1.6","","","","","","null","img/blue33.png","null","display","","","3000",""
"image-keyboard-response","153","94380","0.0-6.0-2.6","","","","","","null","img/mask.png","null"," mask","","","",""
"html-keyboard-response","154","95036","0.0-6.0-3.6","","","","","","655","
    <div style='float: center;'><img src='img/response_scr.png'></img>
	","f","response","f","true","","3000"
"html-keyboard-response","155","96237","0.0-6.0-0.7","","","","","","null","<div style=""font-size:160px;"">+</div>","null","fixation","","","",""
"image-keyboard-response","156","96339","0.0-6.0-1.7","","","","","","null","img/red47.png","null","display","","","100",""
"image-keyboard-response","157","96440","0.0-6.0-2.7","","","","","","null","img/mask.png","null"," mask","","","",""
"html-keyboard-response","158","97556","0.0-6.0-3.7","","","","","","1116","
    <div style='float: center;'><img src='img/response_scr.png'></img>
	","j","response","j","true","","100"
"html-keyboard-response","159","98757","0.0-6.0-0.8","","","","","","null","<div style=""font-size:160px;"">+</div>","null","fixation","","","",""
"image-keyboard-response","160","99010","0.0-6.0-1.8","","","","","","null","img/red40.png","null","display","","","250",""
"image-keyboard-response","161","99112","0.0-6.0-2.8","","","","","","null","img/mask.png","null"," mask","","","",""
"html-keyboard-response","162","100228","0.0-6.0-3.8","","","","","","1115","
    <div style='float: center;'><img src='img/response_scr.png'></img>
	","j","response","j","true","","250"
"html-keyboard-response","163","101429","0.0-6.0-0.9","","","","","","null","<div style=""font-size:160px;"">+</div>","null","fixation","","","",""
"image-keyboard-response","164","104432","0.0-6.0-1.9","","","","","","null","img/red18.png","null","display","","","3000",""
"image-keyboard-response","165","104534","0.0-6.0-2.9","","","","","","null","img/mask.png","null"," mask","","","",""
"html-keyboard-response","166","104809","0.0-6.0-3.9","","","","","","275","
    <div style='float: center;'><img src='img/response_scr.png'></img>
	","j","response","j","true","","3000"
"html-keyboard-response","167","105611","0.0-6.0-0.10","","","","","","null","<div style=""font-size:160px;"">+</div>","null","fixation","","","",""
"image-keyboard-response","168","105863","0.0-6.0-1.10","","","","","","null","img/blue23.png","null","display","","","250",""
"image-keyboard-response","169","105965","0.0-6.0-2.10","","","","","","null","img/mask.png","null"," mask","","","",""
"html-keyboard-response","170","107158","0.0-6.0-3.10","","","","","","1192","
    <div style='float: center;'><img src='img/response_scr.png'></img>
	","j","response","f","false","","250"
"html-keyboard-response","171","107959","0.0-6.0-0.11","","","","","","null","<div style=""font-size:160px;"">+</div>","null","fixation","","","",""
"image-keyboard-response","172","108611","0.0-6.0-1.11","","","","","","null","img/blue1.png","null","display","","","650",""
"image-keyboard-response","173","108714","0.0-6.0-2.11","","","","","","null","img/mask.png","null"," mask","","","",""
"html-keyboard-response","174","109622","0.0-6.0-3.11","","","","","","908","
    <div style='float: center;'><img src='img/response_scr.png'></img>
	","f","response","f","true","","650"
"html-keyboard-response","175","110837","0.0-6.0-0.12","","","","","","null","<div style=""font-size:160px;"">+</div>","null","fixation","","","",""
"image-keyboard-response","176","112839","0.0-6.0-1.12","","","","","","null","img/red54.png","null","display","","","2000",""
"image-keyboard-response","177","112941","0.0-6.0-2.12","","","","","","null","img/mask.png","null"," mask","","","",""
"html-keyboard-response","178","113260","0.0-6.0-3.12","","","","","","318","
    <div style='float: center;'><img src='img/response_scr.png'></img>
	","j","response","j","true","","2000"
"html-keyboard-response","179","113861","0.0-6.0-0.13","","","","","","null","<div style=""font-size:160px;"">+</div>","null","fixation","","","",""
"image-keyboard-response","180","114512","0.0-6.0-1.13","","","","","","null","img/red16.png","null","display","","","650",""
"image-keyboard-response","181","114614","0.0-6.0-2.13","","","","","","null","img/mask.png","null"," mask","","","",""
"html-keyboard-response","182","115117","0.0-6.0-3.13","","","","","","502","
    <div style='float: center;'><img src='img/response_scr.png'></img>
	","j","response","j","true","","650"
"html-keyboard-response","183","116319","0.0-6.0-0.14","","","","","","null","<div style=""font-size:160px;"">+</div>","null","fixation","","","",""
"image-keyboard-response","184","116821","0.0-6.0-1.14","","","","","","null","img/red57.png","null","display","","","500",""
"image-keyboard-response","185","116923","0.0-6.0-2.14","","","","","","null","img/mask.png","null"," mask","","","",""
"html-keyboard-response","186","118828","0.0-6.0-3.14","","","","","","1904","
    <div style='float: center;'><img src='img/response_scr.png'></img>
	","f","response","j","false","","500"
"html-keyboard-response","187","119629","0.0-6.0-0.15","","","","","","null","<div style=""font-size:160px;"">+</div>","null","fixation","","","",""
"image-keyboard-response","188","120131","0.0-6.0-1.15","","","","","","null","img/sanityred4.png","null","display","","","500",""
"image-keyboard-response","189","120233","0.0-6.0-2.15","","","","","","null","img/mask.png","null"," mask","","","",""
"html-keyboard-response","190","120553","0.0-6.0-3.15","","","","","","320","
    <div style='float: center;'><img src='img/response_scr.png'></img>
	","j","response","j","true","","500"
"html-keyboard-response","191","121755","0.0-6.0-0.16","","","","","","null","<div style=""font-size:160px;"">+</div>","null","fixation","","","",""
"image-keyboard-response","192","124758","0.0-6.0-1.16","","","","","","null","img/red6.png","null","display","","","3000",""
"image-keyboard-response","193","124861","0.0-6.0-2.16","","","","","","null","img/mask.png","null"," mask","","","",""
"html-keyboard-response","194","125174","0.0-6.0-3.16","","","","","","313","
    <div style='float: center;'><img src='img/response_scr.png'></img>
	","f","response","j","false","","3000"
"html-keyboard-response","195","126376","0.0-6.0-0.17","","","","","","null","<div style=""font-size:160px;"">+</div>","null","fixation","","","",""
"image-keyboard-response","196","126478","0.0-6.0-1.17","","","","","","null","img/red14.png","null","display","","","100",""
"image-keyboard-response","197","126580","0.0-6.0-2.17","","","","","","null","img/mask.png","null"," mask","","","",""
"html-keyboard-response","198","128582","0.0-6.0-3.17","","","","","","null","
    <div style='float: center;'><img src='img/response_scr.png'></img>
	","null","response","j","false","","100"
"html-keyboard-response","199","130583","0.0-6.0-4.17-0.17","","","","","","null","Response too slow. Please respond quicker next time!","null","warning","","","",""
"html-keyboard-response","200","131384","0.0-6.0-0.18","","","","","","null","<div style=""font-size:160px;"">+</div>","null","fixation","","","",""
"image-keyboard-response","201","132036","0.0-6.0-1.18","","","","","","null","img/red34.png","null","display","","","650",""
"image-keyboard-response","202","132138","0.0-6.0-2.18","","","","","","null","img/mask.png","null"," mask","","","",""
"html-keyboard-response","203","133275","0.0-6.0-3.18","","","","","","1137","
    <div style='float: center;'><img src='img/response_scr.png'></img>
	","j","response","j","true","","650"
"html-keyboard-response","204","134076","0.0-6.0-0.19","","","","","","null","<div style=""font-size:160px;"">+</div>","null","fixation","","","",""
"image-keyboard-response","205","134328","0.0-6.0-1.19","","","","","","null","img/red58.png","null","display","","","250",""
"image-keyboard-response","206","134429","0.0-6.0-2.19","","","","","","null","img/mask.png","null"," mask","","","",""
"html-keyboard-response","207","135813","0.0-6.0-3.19","","","","","","1383","
    <div style='float: center;'><img src='img/response_scr.png'></img>
	","f","response","j","false","","250"
"html-keyboard-response","208","136815","0.0-6.0-0.20","","","","","","null","<div style=""font-size:160px;"">+</div>","null","fixation","","","",""
"image-keyboard-response","209","136916","0.0-6.0-1.20","","","","","","null","img/red2.png","null","display","","","100",""
"image-keyboard-response","210","137017","0.0-6.0-2.20","","","","","","null","img/mask.png","null"," mask","","","",""
"html-keyboard-response","211","138050","0.0-6.0-3.20","","","","","","1032","
    <div style='float: center;'><img src='img/response_scr.png'></img>
	","f","response","j","false","","100"
"html-keyboard-response","212","139052","0.0-6.0-0.21","","","","","","null","<div style=""font-size:160px;"">+</div>","null","fixation","","","",""
"image-keyboard-response","213","139303","0.0-6.0-1.21","","","","","","null","img/red23.png","null","display","","","250",""
"image-keyboard-response","214","139404","0.0-6.0-2.21","","","","","","null","img/mask.png","null"," mask","","","",""
"html-keyboard-response","215","139965","0.0-6.0-3.21","","","","","","560","
    <div style='float: center;'><img src='img/response_scr.png'></img>
	","f","response","j","false","","250"
"html-keyboard-response","216","140566","0.0-6.0-0.22","","","","","","null","<div style=""font-size:160px;"">+</div>","null","fixation","","","",""
"image-keyboard-response","217","140818","0.0-6.0-1.22","","","","","","null","img/red22.png","null","display","","","250",""
"image-keyboard-response","218","140919","0.0-6.0-2.22","","","","","","null","img/mask.png","null"," mask","","","",""
"html-keyboard-response","219","141370","0.0-6.0-3.22","","","","","","451","
    <div style='float: center;'><img src='img/response_scr.png'></img>
	","j","response","j","true","","250"
"html-keyboard-response","220","141972","0.0-6.0-0.23","","","","","","null","<div style=""font-size:160px;"">+</div>","null","fixation","","","",""
"image-keyboard-response","221","142073","0.0-6.0-1.23","","","","","","null","img/red53.png","null","display","","","100",""
"image-keyboard-response","222","142175","0.0-6.0-2.23","","","","","","null","img/mask.png","null"," mask","","","",""
"html-keyboard-response","223","143190","0.0-6.0-3.23","","","","","","1014","
    <div style='float: center;'><img src='img/response_scr.png'></img>
	","j","response","j","true","","100"
"html-keyboard-response","224","144192","0.0-6.0-0.24","","","","","","null","<div style=""font-size:160px;"">+</div>","null","fixation","","","",""
"image-keyboard-response","225","144843","0.0-6.0-1.24","","","","","","null","img/blue13.png","null","display","","","650",""
"image-keyboard-response","226","144945","0.0-6.0-2.24","","","","","","null","img/mask.png","null"," mask","","","",""
"html-keyboard-response","227","145501","0.0-6.0-3.24","","","","","","555","
    <div style='float: center;'><img src='img/response_scr.png'></img>
	","f","response","f","true","","650"
"html-keyboard-response","228","146302","0.0-6.0-0.25","","","","","","null","<div style=""font-size:160px;"">+</div>","null","fixation","","","",""
"image-keyboard-response","229","147304","0.0-6.0-1.25","","","","","","null","img/red49.png","null","display","","","1000",""
"image-keyboard-response","230","147405","0.0-6.0-2.25","","","","","","null","img/mask.png","null"," mask","","","",""
"html-keyboard-response","231","147720","0.0-6.0-3.25","","","","","","314","
    <div style='float: center;'><img src='img/response_scr.png'></img>
	","j","response","j","true","","1000"
"html-keyboard-response","232","148521","0.0-6.0-0.26","","","","","","null","<div style=""font-size:160px;"">+</div>","null","fixation","","","",""
"image-keyboard-response","233","150522","0.0-6.0-1.26","","","","","","null","img/blue3.png","null","display","","","2000",""
"image-keyboard-response","234","150625","0.0-6.0-2.26","","","","","","null","img/mask.png","null"," mask","","","",""
"html-keyboard-response","235","150882","0.0-6.0-3.26","","","","","","256","
    <div style='float: center;'><img src='img/response_scr.png'></img>
	","j","response","f","false","","2000"
"html-keyboard-response","236","152083","0.0-6.0-0.27","","","","","","null","<div style=""font-size:160px;"">+</div>","null","fixation","","","",""
"image-keyboard-response","237","153086","0.0-6.0-1.27","","","","","","null","img/blue29.png","null","display","","","1000",""
"image-keyboard-response","238","153187","0.0-6.0-2.27","","","","","","null","img/mask.png","null"," mask","","","",""
"html-keyboard-response","239","153513","0.0-6.0-3.27","","","","","","325","
    <div style='float: center;'><img src='img/response_scr.png'></img>
	","f","response","f","true","","1000"
"html-keyboard-response","240","154514","0.0-6.0-0.28","","","","","","null","<div style=""font-size:160px;"">+</div>","null","fixation","","","",""
"image-keyboard-response","241","154615","0.0-6.0-1.28","","","","","","null","img/blue14.png","null","display","","","100",""
"image-keyboard-response","242","154716","0.0-6.0-2.28","","","","","","null","img/mask.png","null"," mask","","","",""
"html-keyboard-response","243","155844","0.0-6.0-3.28","","","","","","1127","
    <div style='float: center;'><img src='img/response_scr.png'></img>
	","f","response","f","true","","100"
"html-keyboard-response","244","157046","0.0-6.0-0.29","","","","","","null","<div style=""font-size:160px;"">+</div>","null","fixation","","","",""
"image-keyboard-response","245","157697","0.0-6.0-1.29","","","","","","null","img/sanityblue2.png","null","display","","","650",""
"image-keyboard-response","246","157798","0.0-6.0-2.29","","","","","","null","img/mask.png","null"," mask","","","",""
"html-keyboard-response","247","158082","0.0-6.0-3.29","","","","","","283","
    <div style='float: center;'><img src='img/response_scr.png'></img>
	","f","response","f","true","","650"
"html-keyboard-response","248","159284","0.0-6.0-0.30","","","","","","null","<div style=""font-size:160px;"">+</div>","null","fixation","","","",""
"image-keyboard-response","249","159936","0.0-6.0-1.30","","","","","","null","img/blue37.png","null","display","","","650",""
"image-keyboard-response","250","160038","0.0-6.0-2.30","","","","","","null","img/mask.png","null"," mask","","","",""
"html-keyboard-response","251","160374","0.0-6.0-3.30","","","","","","335","
    <div style='float: center;'><img src='img/response_scr.png'></img>
	","j","response","f","false","","650"
"html-keyboard-response","252","161175","0.0-6.0-0.31","","","","","","null","<div style=""font-size:160px;"">+</div>","null","fixation","","","",""
"image-keyboard-response","253","161677","0.0-6.0-1.31","","","","","","null","img/red37.png","null","display","","","500",""
"image-keyboard-response","254","161778","0.0-6.0-2.31","","","","","","null","img/mask.png","null"," mask","","","",""
"html-keyboard-response","255","162063","0.0-6.0-3.31","","","","","","284","
    <div style='float: center;'><img src='img/response_scr.png'></img>
	","j","response","j","true","","500"
"html-keyboard-response","256","163263","0.0-6.0-0.32","","","","","","null","<div style=""font-size:160px;"">+</div>","null","fixation","","","",""
"image-keyboard-response","257","164266","0.0-6.0-1.32","","","","","","null","img/blue6.png","null","display","","","1000",""
"image-keyboard-response","258","164367","0.0-6.0-2.32","","","","","","null","img/mask.png","null"," mask","","","",""
"html-keyboard-response","259","165453","0.0-6.0-3.32","","","","","","1085","
    <div style='float: center;'><img src='img/response_scr.png'></img>
	","f","response","f","true","","1000"
"html-keyboard-response","260","166454","0.0-6.0-0.33","","","","","","null","<div style=""font-size:160px;"">+</div>","null","fixation","","","",""
"image-keyboard-response","261","166555","0.0-6.0-1.33","","","","","","null","img/blue38.png","null","display","","","100",""
"image-keyboard-response","262","166658","0.0-6.0-2.33","","","","","","null","img/mask.png","null"," mask","","","",""
"html-keyboard-response","263","168219","0.0-6.0-3.33","","","","","","1560","
    <div style='float: center;'><img src='img/response_scr.png'></img>
	","j","response","f","false","","100"
"html-keyboard-response","264","169021","0.0-6.0-0.34","","","","","","null","<div style=""font-size:160px;"">+</div>","null","fixation","","","",""
"image-keyboard-response","265","169523","0.0-6.0-1.34","","","","","","null","img/red25.png","null","display","","","500",""
"image-keyboard-response","266","169624","0.0-6.0-2.34","","","","","","null","img/mask.png","null"," mask","","","",""
"html-keyboard-response","267","170795","0.0-6.0-3.34","","","","","","1170","
    <div style='float: center;'><img src='img/response_scr.png'></img>
	","f","response","j","false","","500"
"html-keyboard-response","268","171996","0.0-6.0-0.35","","","","","","null","<div style=""font-size:160px;"">+</div>","null","fixation","","","",""
"image-keyboard-response","269","172108","0.0-6.0-1.35","","","","","","null","img/red38.png","null","display","","","100",""
"image-keyboard-response","270","172210","0.0-6.0-2.35","","","","","","null","img/mask.png","null"," mask","","","",""
"html-keyboard-response","271","173203","0.0-6.0-3.35","","","","","","992","
    <div style='float: center;'><img src='img/response_scr.png'></img>
	","j","response","j","true","","100"
"html-keyboard-response","272","174004","0.0-6.0-0.36","","","","","","null","<div style=""font-size:160px;"">+</div>","null","fixation","","","",""
"image-keyboard-response","273","177005","0.0-6.0-1.36","","","","","","null","img/sanityred12.png","null","display","","","3000",""
"image-keyboard-response","274","177107","0.0-6.0-2.36","","","","","","null","img/mask.png","null"," mask","","","",""
"html-keyboard-response","275","177386","0.0-6.0-3.36","","","","","","279","
    <div style='float: center;'><img src='img/response_scr.png'></img>
	","j","response","j","true","","3000"
"html-keyboard-response","276","178188","0.0-6.0-0.37","","","","","","null","<div style=""font-size:160px;"">+</div>","null","fixation","","","",""
"image-keyboard-response","277","178690","0.0-6.0-1.37","","","","","","null","img/red24.png","null","display","","","500",""
"image-keyboard-response","278","178792","0.0-6.0-2.37","","","","","","null","img/mask.png","null"," mask","","","",""
"html-keyboard-response","279","179964","0.0-6.0-3.37","","","","","","1172","
    <div style='float: center;'><img src='img/response_scr.png'></img>
	","j","response","j","true","","500"
"html-keyboard-response","280","180965","0.0-6.0-0.38","","","","","","null","<div style=""font-size:160px;"">+</div>","null","fixation","","","",""
"image-keyboard-response","281","183967","0.0-6.0-1.38","","","","","","null","img/blue9.png","null","display","","","3000",""
"image-keyboard-response","282","184069","0.0-6.0-2.38","","","","","","null","img/mask.png","null"," mask","","","",""
"html-keyboard-response","283","185094","0.0-6.0-3.38","","","","","","1025","
    <div style='float: center;'><img src='img/response_scr.png'></img>
	","f","response","f","true","","3000"
"html-keyboard-response","284","185695","0.0-6.0-0.39","","","","","","null","<div style=""font-size:160px;"">+</div>","null","fixation","","","",""
"image-keyboard-response","285","185947","0.0-6.0-1.39","","","","","","null","img/blue24.png","null","display","","","250",""
"image-keyboard-response","286","186049","0.0-6.0-2.39","","","","","","null","img/mask.png","null"," mask","","","",""
"html-keyboard-response","287","187313","0.0-6.0-3.39","","","","","","1264","
    <div style='float: center;'><img src='img/response_scr.png'></img>
	","f","response","f","true","","250"
"html-keyboard-response","288","187916","0.0-6.0-0.40","","","","","","null","<div style=""font-size:160px;"">+</div>","null","fixation","","","",""
"image-keyboard-response","289","190916","0.0-6.0-1.40","","","","","","null","img/blue36.png","null","display","","","3000",""
"image-keyboard-response","290","191031","0.0-6.0-2.40","","","","","","null","img/mask.png","null"," mask","","","",""
"html-keyboard-response","291","191651","0.0-6.0-3.40","","","","","","619","
    <div style='float: center;'><img src='img/response_scr.png'></img>
	","f","response","f","true","","3000"
"html-keyboard-response","292","192453","0.0-6.0-0.41","","","","","","null","<div style=""font-size:160px;"">+</div>","null","fixation","","","",""
"image-keyboard-response","293","192954","0.0-6.0-1.41","","","","","","null","img/blue8.png","null","display","","","500",""
"image-keyboard-response","294","193056","0.0-6.0-2.41","","","","","","null","img/mask.png","null"," mask","","","",""
"html-keyboard-response","295","194190","0.0-6.0-3.41","","","","","","1134","
    <div style='float: center;'><img src='img/response_scr.png'></img>
	","f","response","f","true","","500"
"html-keyboard-response","296","194993","0.0-6.0-0.42","","","","","","null","<div style=""font-size:160px;"">+</div>","null","fixation","","","",""
"image-keyboard-response","297","195645","0.0-6.0-1.42","","","","","","null","img/blue26.png","null","display","","","650",""
"image-keyboard-response","298","195746","0.0-6.0-2.42","","","","","","null","img/mask.png","null"," mask","","","",""
"html-keyboard-response","299","196426","0.0-6.0-3.42","","","","","","679","
    <div style='float: center;'><img src='img/response_scr.png'></img>
	","f","response","f","true","","650"
"html-keyboard-response","300","197427","0.0-6.0-0.43","","","","","","null","<div style=""font-size:160px;"">+</div>","null","fixation","","","",""
"image-keyboard-response","301","198079","0.0-6.0-1.43","","","","","","null","img/blue4.png","null","display","","","650",""
"image-keyboard-response","302","198181","0.0-6.0-2.43","","","","","","null","img/mask.png","null"," mask","","","",""
"html-keyboard-response","303","198492","0.0-6.0-3.43","","","","","","311","
    <div style='float: center;'><img src='img/response_scr.png'></img>
	","f","response","f","true","","650"
"html-keyboard-response","304","199294","0.0-6.0-0.44","","","","","","null","<div style=""font-size:160px;"">+</div>","null","fixation","","","",""
"image-keyboard-response","305","199947","0.0-6.0-1.44","","","","","","null","img/red56.png","null","display","","","650",""
"image-keyboard-response","306","200048","0.0-6.0-2.44","","","","","","null","img/mask.png","null"," mask","","","",""
"html-keyboard-response","307","200294","0.0-6.0-3.44","","","","","","245","
    <div style='float: center;'><img src='img/response_scr.png'></img>
	","j","response","j","true","","650"
"html-keyboard-response","308","201495","0.0-6.0-0.45","","","","","","null","<div style=""font-size:160px;"">+</div>","null","fixation","","","",""
"image-keyboard-response","309","202147","0.0-6.0-1.45","","","","","","null","img/red33.png","null","display","","","650",""
"image-keyboard-response","310","202248","0.0-6.0-2.45","","","","","","null","img/mask.png","null"," mask","","","",""
"html-keyboard-response","311","202662","0.0-6.0-3.45","","","","","","413","
    <div style='float: center;'><img src='img/response_scr.png'></img>
	","j","response","j","true","","650"
"html-keyboard-response","312","203663","0.0-6.0-0.46","","","","","","null","<div style=""font-size:160px;"">+</div>","null","fixation","","","",""
"image-keyboard-response","313","205665","0.0-6.0-1.46","","","","","","null","img/red8.png","null","display","","","2000",""
"image-keyboard-response","314","205768","0.0-6.0-2.46","","","","","","null","img/mask.png","null"," mask","","","",""
"html-keyboard-response","315","206108","0.0-6.0-3.46","","","","","","340","
    <div style='float: center;'><img src='img/response_scr.png'></img>
	","j","response","j","true","","2000"
"html-keyboard-response","316","207110","0.0-6.0-0.47","","","","","","null","<div style=""font-size:160px;"">+</div>","null","fixation","","","",""
"image-keyboard-response","317","210111","0.0-6.0-1.47","","","","","","null","img/red26.png","null","display","","","3000",""
"image-keyboard-response","318","210212","0.0-6.0-2.47","","","","","","null","img/mask.png","null"," mask","","","",""
"html-keyboard-response","319","210480","0.0-6.0-3.47","","","","","","268","
    <div style='float: center;'><img src='img/response_scr.png'></img>
	","j","response","j","true","","3000"
"html-keyboard-response","320","211682","0.0-6.0-0.48","","","","","","null","<div style=""font-size:160px;"">+</div>","null","fixation","","","",""
"image-keyboard-response","321","211783","0.0-6.0-1.48","","","","","","null","img/red42.png","null","display","","","100",""
"image-keyboard-response","322","211885","0.0-6.0-2.48","","","","","","null","img/mask.png","null"," mask","","","",""
"html-keyboard-response","323","212586","0.0-6.0-3.48","","","","","","701","
    <div style='float: center;'><img src='img/response_scr.png'></img>
	","f","response","j","false","","100"
"html-keyboard-response","324","213599","0.0-6.0-0.49","","","","","","null","<div style=""font-size:160px;"">+</div>","null","fixation","","","",""
"image-keyboard-response","325","214102","0.0-6.0-1.49","","","","","","null","img/blue35.png","null","display","","","500",""
"image-keyboard-response","326","214203","0.0-6.0-2.49","","","","","","null","img/mask.png","null"," mask","","","",""
"html-keyboard-response","327","214857","0.0-6.0-3.49","","","","","","653","
    <div style='float: center;'><img src='img/response_scr.png'></img>
	","j","response","f","false","","500"
"html-keyboard-response","328","215858","0.0-6.0-0.50","","","","","","null","<div style=""font-size:160px;"">+</div>","null","fixation","","","",""
"image-keyboard-response","329","216109","0.0-6.0-1.50","","","","","","null","img/blue11.png","null","display","","","250",""
"image-keyboard-response","330","216212","0.0-6.0-2.50","","","","","","null","img/mask.png","null"," mask","","","",""
"html-keyboard-response","331","217074","0.0-6.0-3.50","","","","","","862","
    <div style='float: center;'><img src='img/response_scr.png'></img>
	","f","response","f","true","","250"
"html-keyboard-response","332","218077","0.0-6.0-0.51","","","","","","null","<div style=""font-size:160px;"">+</div>","null","fixation","","","",""
"image-keyboard-response","333","218178","0.0-6.0-1.51","","","","","","null","img/blue21.png","null","display","","","100",""
"image-keyboard-response","334","218280","0.0-6.0-2.51","","","","","","null","img/mask.png","null"," mask","","","",""
"html-keyboard-response","335","218914","0.0-6.0-3.51","","","","","","633","
    <div style='float: center;'><img src='img/response_scr.png'></img>
	","j","response","f","false","","100"
"html-keyboard-response","336","219915","0.0-6.0-0.52","","","","","","null","<div style=""font-size:160px;"">+</div>","null","fixation","","","",""
"image-keyboard-response","337","220417","0.0-6.0-1.52","","","","","","null","img/red43.png","null","display","","","500",""
"image-keyboard-response","338","220519","0.0-6.0-2.52","","","","","","null","img/mask.png","null"," mask","","","",""
"html-keyboard-response","339","221378","0.0-6.0-3.52","","","","","","859","
    <div style='float: center;'><img src='img/response_scr.png'></img>
	","f","response","j","false","","500"
"html-keyboard-response","340","222579","0.0-6.0-0.53","","","","","","null","<div style=""font-size:160px;"">+</div>","null","fixation","","","",""
"image-keyboard-response","341","222831","0.0-6.0-1.53","","","","","","null","img/red60.png","null","display","","","250",""
"image-keyboard-response","342","222933","0.0-6.0-2.53","","","","","","null","img/mask.png","null"," mask","","","",""
"html-keyboard-response","343","223726","0.0-6.0-3.53","","","","","","792","
    <div style='float: center;'><img src='img/response_scr.png'></img>
	","j","response","j","true","","250"
"html-keyboard-response","344","224743","0.0-6.0-0.54","","","","","","null","<div style=""font-size:160px;"">+</div>","null","fixation","","","",""
"image-keyboard-response","345","227745","0.0-6.0-1.54","","","","","","null","img/red27.png","null","display","","","3000",""
"image-keyboard-response","346","227846","0.0-6.0-2.54","","","","","","null","img/mask.png","null"," mask","","","",""
"html-keyboard-response","347","229206","0.0-6.0-3.54","","","","","","1359","
    <div style='float: center;'><img src='img/response_scr.png'></img>
	","j","response","j","true","","3000"
"html-keyboard-response","348","229817","0.0-6.0-0.55","","","","","","null","<div style=""font-size:160px;"">+</div>","null","fixation","","","",""
"image-keyboard-response","349","232819","0.0-6.0-1.55","","","","","","null","img/blue16.png","null","display","","","3000",""
"image-keyboard-response","350","232920","0.0-6.0-2.55","","","","","","null","img/mask.png","null"," mask","","","",""
"html-keyboard-response","351","233200","0.0-6.0-3.55","","","","","","279","
    <div style='float: center;'><img src='img/response_scr.png'></img>
	","f","response","f","true","","3000"
"html-keyboard-response","352","234002","0.0-6.0-0.56","","","","","","null","<div style=""font-size:160px;"">+</div>","null","fixation","","","",""
"image-keyboard-response","353","235004","0.0-6.0-1.56","","","","","","null","img/sanityred7.png","null","display","","","1000",""
"image-keyboard-response","354","235107","0.0-6.0-2.56","","","","","","null","img/mask.png","null"," mask","","","",""
"html-keyboard-response","355","235380","0.0-6.0-3.56","","","","","","272","
    <div style='float: center;'><img src='img/response_scr.png'></img>
	","j","response","j","true","","1000"
"html-keyboard-response","356","236381","0.0-6.0-0.57","","","","","","null","<div style=""font-size:160px;"">+</div>","null","fixation","","","",""
"image-keyboard-response","357","236633","0.0-6.0-1.57","","","","","","null","img/blue32.png","null","display","","","250",""
"image-keyboard-response","358","236735","0.0-6.0-2.57","","","","","","null","img/mask.png","null"," mask","","","",""
"html-keyboard-response","359","237143","0.0-6.0-3.57","","","","","","407","
    <div style='float: center;'><img src='img/response_scr.png'></img>
	","f","response","f","true","","250"
"html-keyboard-response","360","238344","0.0-6.0-0.58","","","","","","null","<div style=""font-size:160px;"">+</div>","null","fixation","","","",""
"image-keyboard-response","361","238996","0.0-6.0-1.58","","","","","","null","img/blue20.png","null","display","","","650",""
"image-keyboard-response","362","239097","0.0-6.0-2.58","","","","","","null","img/mask.png","null"," mask","","","",""
"html-keyboard-response","363","239491","0.0-6.0-3.58","","","","","","393","
    <div style='float: center;'><img src='img/response_scr.png'></img>
	","f","response","f","true","","650"
"html-keyboard-response","364","240493","0.0-6.0-0.59","","","","","","null","<div style=""font-size:160px;"">+</div>","null","fixation","","","",""
"image-keyboard-response","365","241495","0.0-6.0-1.59","","","","","","null","img/red5.png","null","display","","","1000",""
"image-keyboard-response","366","241596","0.0-6.0-2.59","","","","","","null","img/mask.png","null"," mask","","","",""
"html-keyboard-response","367","241877","0.0-6.0-3.59","","","","","","280","
    <div style='float: center;'><img src='img/response_scr.png'></img>
	","j","response","j","true","","1000"
"html-keyboard-response","368","242879","0.0-6.0-0.60","","","","","","null","<div style=""font-size:160px;"">+</div>","null","fixation","","","",""
"image-keyboard-response","369","244881","0.0-6.0-1.60","","","","","","null","img/red28.png","null","display","","","2000",""
"image-keyboard-response","370","244983","0.0-6.0-2.60","","","","","","null","img/mask.png","null"," mask","","","",""
"html-keyboard-response","371","245325","0.0-6.0-3.60","","","","","","341","
    <div style='float: center;'><img src='img/response_scr.png'></img>
	","f","response","j","false","","2000"
"html-keyboard-response","372","246527","0.0-6.0-0.61","","","","","","null","<div style=""font-size:160px;"">+</div>","null","fixation","","","",""
"image-keyboard-response","373","249529","0.0-6.0-1.61","","","","","","null","img/red59.png","null","display","","","3000",""
"image-keyboard-response","374","249631","0.0-6.0-2.61","","","","","","null","img/mask.png","null"," mask","","","",""
"html-keyboard-response","375","249850","0.0-6.0-3.61","","","","","","218","
    <div style='float: center;'><img src='img/response_scr.png'></img>
	","j","response","j","true","","3000"
"html-keyboard-response","376","250451","0.0-6.0-0.62","","","","","","null","<div style=""font-size:160px;"">+</div>","null","fixation","","","",""
"image-keyboard-response","377","252453","0.0-6.0-1.62","","","","","","null","img/red35.png","null","display","","","2000",""
"image-keyboard-response","378","252554","0.0-6.0-2.62","","","","","","null","img/mask.png","null"," mask","","","",""
"html-keyboard-response","379","252824","0.0-6.0-3.62","","","","","","270","
    <div style='float: center;'><img src='img/response_scr.png'></img>
	","j","response","j","true","","2000"
"html-keyboard-response","380","253626","0.0-6.0-0.63","","","","","","null","<div style=""font-size:160px;"">+</div>","null","fixation","","","",""
"image-keyboard-response","381","254286","0.0-6.0-1.63","","","","","","null","img/red11.png","null","display","","","650",""
"image-keyboard-response","382","254395","0.0-6.0-2.63","","","","","","null","img/mask.png","null"," mask","","","",""
"html-keyboard-response","383","255229","0.0-6.0-3.63","","","","","","833","
    <div style='float: center;'><img src='img/response_scr.png'></img>
	","j","response","j","true","","650"
"html-keyboard-response","384","256031","0.0-6.0-0.64","","","","","","null","<div style=""font-size:160px;"">+</div>","null","fixation","","","",""
"image-keyboard-response","385","256133","0.0-6.0-1.64","","","","","","null","img/red55.png","null","display","","","100",""
"image-keyboard-response","386","256234","0.0-6.0-2.64","","","","","","null","img/mask.png","null"," mask","","","",""
"html-keyboard-response","387","258235","0.0-6.0-3.64","","","","","","null","
    <div style='float: center;'><img src='img/response_scr.png'></img>
	","null","response","j","false","","100"
"html-keyboard-response","388","260238","0.0-6.0-4.64-0.64","","","","","","null","Response too slow. Please respond quicker next time!","null","warning","","","",""
"html-keyboard-response","389","261441","0.0-6.0-0.65","","","","","","null","<div style=""font-size:160px;"">+</div>","null","fixation","","","",""
"image-keyboard-response","390","262092","0.0-6.0-1.65","","","","","","null","img/red32.png","null","display","","","650",""
"image-keyboard-response","391","262193","0.0-6.0-2.65","","","","","","null","img/mask.png","null"," mask","","","",""
"html-keyboard-response","392","262952","0.0-6.0-3.65","","","","","","758","
    <div style='float: center;'><img src='img/response_scr.png'></img>
	","j","response","j","true","","650"
"html-keyboard-response","393","263553","0.0-6.0-0.66","","","","","","null","<div style=""font-size:160px;"">+</div>","null","fixation","","","",""
"image-keyboard-response","394","265556","0.0-6.0-1.66","","","","","","null","img/red48.png","null","display","","","2000",""
"image-keyboard-response","395","265658","0.0-6.0-2.66","","","","","","null","img/mask.png","null"," mask","","","",""
"html-keyboard-response","396","266000","0.0-6.0-3.66","","","","","","341","
    <div style='float: center;'><img src='img/response_scr.png'></img>
	","j","response","j","true","","2000"
"html-keyboard-response","397","266802","0.0-6.0-0.67","","","","","","null","<div style=""font-size:160px;"">+</div>","null","fixation","","","",""
"image-keyboard-response","398","267804","0.0-6.0-1.67","","","","","","null","img/red4.png","null","display","","","1000",""
"image-keyboard-response","399","267907","0.0-6.0-2.67","","","","","","null","img/mask.png","null"," mask","","","",""
"html-keyboard-response","400","268179","0.0-6.0-3.67","","","","","","271","
    <div style='float: center;'><img src='img/response_scr.png'></img>
	","j","response","j","true","","1000"
"html-keyboard-response","401","268781","0.0-6.0-0.68","","","","","","null","<div style=""font-size:160px;"">+</div>","null","fixation","","","",""
"image-keyboard-response","402","269433","0.0-6.0-1.68","","","","","","null","img/red1.png","null","display","","","650",""
"image-keyboard-response","403","269535","0.0-6.0-2.68","","","","","","null","img/mask.png","null"," mask","","","",""
"html-keyboard-response","404","269998","0.0-6.0-3.68","","","","","","462","
    <div style='float: center;'><img src='img/response_scr.png'></img>
	","f","response","j","false","","650"
"html-keyboard-response","405","270599","0.0-6.0-0.69","","","","","","null","<div style=""font-size:160px;"">+</div>","null","fixation","","","",""
"image-keyboard-response","406","271101","0.0-6.0-1.69","","","","","","null","img/blue12.png","null","display","","","500",""
"image-keyboard-response","407","271203","0.0-6.0-2.69","","","","","","null","img/mask.png","null"," mask","","","",""
"html-keyboard-response","408","271649","0.0-6.0-3.69","","","","","","446","
    <div style='float: center;'><img src='img/response_scr.png'></img>
	","f","response","f","true","","500"
"html-keyboard-response","409","272251","0.0-6.0-0.70","","","","","","null","<div style=""font-size:160px;"">+</div>","null","fixation","","","",""
"image-keyboard-response","410","272902","0.0-6.0-1.70","","","","","","null","img/red21.png","null","display","","","650",""
"image-keyboard-response","411","273003","0.0-6.0-2.70","","","","","","null","img/mask.png","null"," mask","","","",""
"html-keyboard-response","412","273338","0.0-6.0-3.70","","","","","","335","
    <div style='float: center;'><img src='img/response_scr.png'></img>
	","j","response","j","true","","650"
"html-keyboard-response","413","274340","0.0-6.0-0.71","","","","","","null","<div style=""font-size:160px;"">+</div>","null","fixation","","","",""
"image-keyboard-response","414","276341","0.0-6.0-1.71","","","","","","null","img/red15.png","null","display","","","2000",""
"image-keyboard-response","415","276444","0.0-6.0-2.71","","","","","","null","img/mask.png","null"," mask","","","",""
"html-keyboard-response","416","277029","0.0-6.0-3.71","","","","","","584","
    <div style='float: center;'><img src='img/response_scr.png'></img>
	","j","response","j","true","","2000"
"html-keyboard-response","417","277630","0.0-6.0-0.72","","","","","","null","<div style=""font-size:160px;"">+</div>","null","fixation","","","",""
"image-keyboard-response","418","278632","0.0-6.0-1.72","","","","","","null","img/red7.png","null","display","","","1000",""
"image-keyboard-response","419","278733","0.0-6.0-2.72","","","","","","null","img/mask.png","null"," mask","","","",""
"html-keyboard-response","420","279546","0.0-6.0-3.72","","","","","","812","
    <div style='float: center;'><img src='img/response_scr.png'></img>
	","j","response","j","true","","1000"
"html-keyboard-response","421","280148","0.0-6.0-0.73","","","","","","null","<div style=""font-size:160px;"">+</div>","null","fixation","","","",""
"image-keyboard-response","422","282150","0.0-6.0-1.73","","","","","","null","img/blue7.png","null","display","","","2000",""
"image-keyboard-response","423","282251","0.0-6.0-2.73","","","","","","null","img/mask.png","null"," mask","","","",""
"html-keyboard-response","424","282518","0.0-6.0-3.73","","","","","","266","
    <div style='float: center;'><img src='img/response_scr.png'></img>
	","f","response","f","true","","2000"
"html-keyboard-response","425","283320","0.0-6.0-0.74","","","","","","null","<div style=""font-size:160px;"">+</div>","null","fixation","","","",""
"image-keyboard-response","426","285323","0.0-6.0-1.74","","","","","","null","img/blue18.png","null","display","","","2000",""
"image-keyboard-response","427","285424","0.0-6.0-2.74","","","","","","null","img/mask.png","null"," mask","","","",""
"html-keyboard-response","428","285681","0.0-6.0-3.74","","","","","","257","
    <div style='float: center;'><img src='img/response_scr.png'></img>
	","f","response","f","true","","2000"
"html-keyboard-response","429","286883","0.0-6.0-0.75","","","","","","null","<div style=""font-size:160px;"">+</div>","null","fixation","","","",""
"image-keyboard-response","430","286986","0.0-6.0-1.75","","","","","","null","img/blue17.png","null","display","","","100",""
"image-keyboard-response","431","287087","0.0-6.0-2.75","","","","","","null","img/mask.png","null"," mask","","","",""
"html-keyboard-response","432","289070","0.0-6.0-3.75","","","","","","1983","
    <div style='float: center;'><img src='img/response_scr.png'></img>
	","j","response","f","false","","100"
"html-keyboard-response","433","289671","0.0-6.0-0.76","","","","","","null","<div style=""font-size:160px;"">+</div>","null","fixation","","","",""
"image-keyboard-response","434","290323","0.0-6.0-1.76","","","","","","null","img/red30.png","null","display","","","650",""
"image-keyboard-response","435","290425","0.0-6.0-2.76","","","","","","null","img/mask.png","null"," mask","","","",""
"html-keyboard-response","436","291001","0.0-6.0-3.76","","","","","","576","
    <div style='float: center;'><img src='img/response_scr.png'></img>
	","j","response","j","true","","650"
"html-keyboard-response","437","291802","0.0-6.0-0.77","","","","","","null","<div style=""font-size:160px;"">+</div>","null","fixation","","","",""
"image-keyboard-response","438","294804","0.0-6.0-1.77","","","","","","null","img/blue34.png","null","display","","","3000",""
"image-keyboard-response","439","294905","0.0-6.0-2.77","","","","","","null","img/mask.png","null"," mask","","","",""
"html-keyboard-response","440","295147","0.0-6.0-3.77","","","","","","241","
    <div style='float: center;'><img src='img/response_scr.png'></img>
	","f","response","f","true","","3000"
"html-keyboard-response","441","296358","0.0-6.0-0.78","","","","","","null","<div style=""font-size:160px;"">+</div>","null","fixation","","","",""
"image-keyboard-response","442","296860","0.0-6.0-1.78","","","","","","null","img/sanityblue5.png","null","display","","","500",""
"image-keyboard-response","443","296962","0.0-6.0-2.78","","","","","","null","img/mask.png","null"," mask","","","",""
"html-keyboard-response","444","297252","0.0-6.0-3.78","","","","","","289","
    <div style='float: center;'><img src='img/response_scr.png'></img>
	","f","response","f","true","","500"
"html-keyboard-response","445","298253","0.0-6.0-0.79","","","","","","null","<div style=""font-size:160px;"">+</div>","null","fixation","","","",""
"image-keyboard-response","446","298756","0.0-6.0-1.79","","","","","","null","img/blue19.png","null","display","","","500",""
"image-keyboard-response","447","298857","0.0-6.0-2.79","","","","","","null","img/mask.png","null"," mask","","","",""
"html-keyboard-response","448","299469","0.0-6.0-3.79","","","","","","611","
    <div style='float: center;'><img src='img/response_scr.png'></img>
	","j","response","f","false","","500"
"html-keyboard-response","449","300070","0.0-6.0-0.80","","","","","","null","<div style=""font-size:160px;"">+</div>","null","fixation","","","",""
"image-keyboard-response","450","300323","0.0-6.0-1.80","","","","","","null","img/blue22.png","null","display","","","250",""
"image-keyboard-response","451","300426","0.0-6.0-2.80","","","","","","null","img/mask.png","null"," mask","","","",""
"html-keyboard-response","452","300931","0.0-6.0-3.80","","","","","","505","
    <div style='float: center;'><img src='img/response_scr.png'></img>
	","f","response","f","true","","250"
"html-keyboard-response","453","301932","0.0-6.0-0.81","","","","","","null","<div style=""font-size:160px;"">+</div>","null","fixation","","","",""
"image-keyboard-response","454","302034","0.0-6.0-1.81","","","","","","null","img/red13.png","null","display","","","100",""
"image-keyboard-response","455","302135","0.0-6.0-2.81","","","","","","null","img/mask.png","null"," mask","","","",""
"html-keyboard-response","456","303262","0.0-6.0-3.81","","","","","","1127","
    <div style='float: center;'><img src='img/response_scr.png'></img>
	","f","response","j","false","","100"
"html-keyboard-response","457","304064","0.0-6.0-0.82","","","","","","null","<div style=""font-size:160px;"">+</div>","null","fixation","","","",""
"image-keyboard-response","458","307065","0.0-6.0-1.82","","","","","","null","img/sanityred10.png","null","display","","","3000",""
"image-keyboard-response","459","307166","0.0-6.0-2.82","","","","","","null","img/mask.png","null"," mask","","","",""
"html-keyboard-response","460","307561","0.0-6.0-3.82","","","","","","394","
    <div style='float: center;'><img src='img/response_scr.png'></img>
	","j","response","j","true","","3000"
"html-keyboard-response","461","308362","0.0-6.0-0.83","","","","","","null","<div style=""font-size:160px;"">+</div>","null","fixation","","","",""
"image-keyboard-response","462","308465","0.0-6.0-1.83","","","","","","null","img/red36.png","null","display","","","100",""
"image-keyboard-response","463","308567","0.0-6.0-2.83","","","","","","null","img/mask.png","null"," mask","","","",""
"html-keyboard-response","464","309854","0.0-6.0-3.83","","","","","","1287","
    <div style='float: center;'><img src='img/response_scr.png'></img>
	","j","response","j","true","","100"
"html-keyboard-response","465","310655","0.0-6.0-0.84","","","","","","null","<div style=""font-size:160px;"">+</div>","null","fixation","","","",""
"image-keyboard-response","466","311307","0.0-6.0-1.84","","","","","","null","img/red41.png","null","display","","","650",""
"image-keyboard-response","467","311409","0.0-6.0-2.84","","","","","","null","img/mask.png","null"," mask","","","",""
"html-keyboard-response","468","312279","0.0-6.0-3.84","","","","","","870","
    <div style='float: center;'><img src='img/response_scr.png'></img>
	","f","response","j","false","","650"
"html-keyboard-response","469","313481","0.0-6.0-0.85","","","","","","null","<div style=""font-size:160px;"">+</div>","null","fixation","","","",""
"image-keyboard-response","470","313583","0.0-6.0-1.85","","","","","","null","img/red46.png","null","display","","","100",""
"image-keyboard-response","471","313685","0.0-6.0-2.85","","","","","","null","img/mask.png","null"," mask","","","",""
"html-keyboard-response","472","315047","0.0-6.0-3.85","","","","","","1361","
    <div style='float: center;'><img src='img/response_scr.png'></img>
	","j","response","j","true","","100"
"html-keyboard-response","473","315848","0.0-6.0-0.86","","","","","","null","<div style=""font-size:160px;"">+</div>","null","fixation","","","",""
"image-keyboard-response","474","316849","0.0-6.0-1.86","","","","","","null","img/sanityblue3.png","null","display","","","1000",""
"image-keyboard-response","475","316950","0.0-6.0-2.86","","","","","","null","img/mask.png","null"," mask","","","",""
"html-keyboard-response","476","317265","0.0-6.0-3.86","","","","","","314","
    <div style='float: center;'><img src='img/response_scr.png'></img>
	","f","response","f","true","","1000"
"html-keyboard-response","477","318267","0.0-6.0-0.87","","","","","","null","<div style=""font-size:160px;"">+</div>","null","fixation","","","",""
"image-keyboard-response","478","320268","0.0-6.0-1.87","","","","","","null","img/blue15.png","null","display","","","2000",""
"image-keyboard-response","479","320369","0.0-6.0-2.87","","","","","","null","img/mask.png","null"," mask","","","",""
"html-keyboard-response","480","320655","0.0-6.0-3.87","","","","","","285","
    <div style='float: center;'><img src='img/response_scr.png'></img>
	","f","response","f","true","","2000"
"html-keyboard-response","481","321257","0.0-6.0-0.88","","","","","","null","<div style=""font-size:160px;"">+</div>","null","fixation","","","",""
"image-keyboard-response","482","321909","0.0-6.0-1.88","","","","","","null","img/sanityblue4.png","null","display","","","650",""
"image-keyboard-response","483","322010","0.0-6.0-2.88","","","","","","null","img/mask.png","null"," mask","","","",""
"html-keyboard-response","484","322454","0.0-6.0-3.88","","","","","","443","
    <div style='float: center;'><img src='img/response_scr.png'></img>
	","f","response","f","true","","650"
"html-keyboard-response","485","323456","0.0-6.0-0.89","","","","","","null","<div style=""font-size:160px;"">+</div>","null","fixation","","","",""
"image-keyboard-response","486","323722","0.0-6.0-1.89","","","","","","null","img/blue10.png","null","display","","","250",""
"image-keyboard-response","487","323823","0.0-6.0-2.89","","","","","","null","img/mask.png","null"," mask","","","",""
"html-keyboard-response","488","324843","0.0-6.0-3.89","","","","","","1019","
    <div style='float: center;'><img src='img/response_scr.png'></img>
	","f","response","f","true","","250"
"html-keyboard-response","489","326044","0.0-6.0-0.90","","","","","","null","<div style=""font-size:160px;"">+</div>","null","fixation","","","",""
"image-keyboard-response","490","327047","0.0-6.0-1.90","","","","","","null","img/blue40.png","null","display","","","1000",""
"image-keyboard-response","491","327148","0.0-6.0-2.90","","","","","","null","img/mask.png","null"," mask","","","",""
"html-keyboard-response","492","327495","0.0-6.0-3.90","","","","","","347","
    <div style='float: center;'><img src='img/response_scr.png'></img>
	","f","response","f","true","","1000"
"html-keyboard-response","493","328097","0.0-6.0-0.91","","","","","","null","<div style=""font-size:160px;"">+</div>","null","fixation","","","",""
"image-keyboard-response","494","329099","0.0-6.0-1.91","","","","","","null","img/blue27.png","null","display","","","1000",""
"image-keyboard-response","495","329200","0.0-6.0-2.91","","","","","","null","img/mask.png","null"," mask","","","",""
"html-keyboard-response","496","329450","0.0-6.0-3.91","","","","","","249","
    <div style='float: center;'><img src='img/response_scr.png'></img>
	","f","response","f","true","","1000"
"html-keyboard-response","497","330051","0.0-6.0-0.92","","","","","","null","<div style=""font-size:160px;"">+</div>","null","fixation","","","",""
"image-keyboard-response","498","332053","0.0-6.0-1.92","","","","","","null","img/red44.png","null","display","","","2000",""
"image-keyboard-response","499","332156","0.0-6.0-2.92","","","","","","null","img/mask.png","null"," mask","","","",""
"html-keyboard-response","500","332404","0.0-6.0-3.92","","","","","","248","
    <div style='float: center;'><img src='img/response_scr.png'></img>
	","j","response","j","true","","2000"
"html-keyboard-response","501","333605","0.0-6.0-0.93","","","","","","null","<div style=""font-size:160px;"">+</div>","null","fixation","","","",""
"image-keyboard-response","502","334118","0.0-6.0-1.93","","","","","","null","img/blue39.png","null","display","","","500",""
"image-keyboard-response","503","334220","0.0-6.0-2.93","","","","","","null","img/mask.png","null"," mask","","","",""
"html-keyboard-response","504","334829","0.0-6.0-3.93","","","","","","609","
    <div style='float: center;'><img src='img/response_scr.png'></img>
	","j","response","f","false","","500"
"html-keyboard-response","505","335630","0.0-6.0-0.94","","","","","","null","<div style=""font-size:160px;"">+</div>","null","fixation","","","",""
"image-keyboard-response","506","336132","0.0-6.0-1.94","","","","","","null","img/red45.png","null","display","","","500",""
"image-keyboard-response","507","336233","0.0-6.0-2.94","","","","","","null","img/mask.png","null"," mask","","","",""
"html-keyboard-response","508","336556","0.0-6.0-3.94","","","","","","322","
    <div style='float: center;'><img src='img/response_scr.png'></img>
	","j","response","j","true","","500"
"html-keyboard-response","509","337158","0.0-6.0-0.95","","","","","","null","<div style=""font-size:160px;"">+</div>","null","fixation","","","",""
"image-keyboard-response","510","337259","0.0-6.0-1.95","","","","","","null","img/sanityblue8.png","null","display","","","100",""
"image-keyboard-response","511","337361","0.0-6.0-2.95","","","","","","null","img/mask.png","null"," mask","","","",""
"html-keyboard-response","512","339363","0.0-6.0-3.95","","","","","","null","
    <div style='float: center;'><img src='img/response_scr.png'></img>
	","null","response","f","false","","100"
"html-keyboard-response","513","341364","0.0-6.0-4.95-0.95","","","","","","null","Response too slow. Please respond quicker next time!","null","warning","","","",""
"html-keyboard-response","514","342366","0.0-6.0-0.96","","","","","","null","<div style=""font-size:160px;"">+</div>","null","fixation","","","",""
"image-keyboard-response","515","345367","0.0-6.0-1.96","","","","","","null","img/red3.png","null","display","","","3000",""
"image-keyboard-response","516","345469","0.0-6.0-2.96","","","","","","null","img/mask.png","null"," mask","","","",""
"html-keyboard-response","517","345754","0.0-6.0-3.96","","","","","","285","
    <div style='float: center;'><img src='img/response_scr.png'></img>
	","j","response","j","true","","3000"
"html-keyboard-response","518","346556","0.0-6.0-0.97","","","","","","null","<div style=""font-size:160px;"">+</div>","null","fixation","","","",""
"image-keyboard-response","519","347058","0.0-6.0-1.97","","","","","","null","img/blue2.png","null","display","","","500",""
"image-keyboard-response","520","347160","0.0-6.0-2.97","","","","","","null","img/mask.png","null"," mask","","","",""
"html-keyboard-response","521","347480","0.0-6.0-3.97","","","","","","320","
    <div style='float: center;'><img src='img/response_scr.png'></img>
	","f","response","f","true","","500"
"html-keyboard-response","522","348281","0.0-6.0-0.98","","","","","","null","<div style=""font-size:160px;"">+</div>","null","fixation","","","",""
"image-keyboard-response","523","350282","0.0-6.0-1.98","","","","","","null","img/red17.png","null","display","","","2000",""
"image-keyboard-response","524","350385","0.0-6.0-2.98","","","","","","null","img/mask.png","null"," mask","","","",""
"html-keyboard-response","525","350757","0.0-6.0-3.98","","","","","","372","
    <div style='float: center;'><img src='img/response_scr.png'></img>
	","j","response","j","true","","2000"
"html-keyboard-response","526","351760","0.0-6.0-0.99","","","","","","null","<div style=""font-size:160px;"">+</div>","null","fixation","","","",""
"image-keyboard-response","527","352411","0.0-6.0-1.99","","","","","","null","img/red50.png","null","display","","","650",""
"image-keyboard-response","528","352512","0.0-6.0-2.99","","","","","","null","img/mask.png","null"," mask","","","",""
"html-keyboard-response","529","353145","0.0-6.0-3.99","","","","","","632","
    <div style='float: center;'><img src='img/response_scr.png'></img>
	","f","response","j","false","","650"
"html-keyboard-response","530","363478","0.0-7.0","","","","","","10333","<p>End of block. Feel free to take a break.</p><p>Press c when you're ready to continue with the experiment.</p>","c","instruction","","","",""
"html-keyboard-response","531","364480","0.0-8.0-0.0","","","","","","null","<div style=""font-size:160px;"">+</div>","null","fixation","","","",""
"image-keyboard-response","532","365481","0.0-8.0-1.0","","","","","","null","img/blue6.png","null","display","","","1000",""
"image-keyboard-response","533","365582","0.0-8.0-2.0","","","","","","null","img/mask.png","null"," mask","","","",""
"html-keyboard-response","534","365867","0.0-8.0-3.0","","","","","","284","
    <div style='float: center;'><img src='img/response_scr.png'></img>
	","f","response","f","true","","1000"
"html-keyboard-response","535","366868","0.0-8.0-0.1","","","","","","null","<div style=""font-size:160px;"">+</div>","null","fixation","","","",""
"image-keyboard-response","536","368870","0.0-8.0-1.1","","","","","","null","img/red14.png","null","display","","","2000",""
"image-keyboard-response","537","368972","0.0-8.0-2.1","","","","","","null","img/mask.png","null"," mask","","","",""
"html-keyboard-response","538","369145","0.0-8.0-3.1","","","","","","172","
    <div style='float: center;'><img src='img/response_scr.png'></img>
	","j","response","j","true","","2000"
"html-keyboard-response","539","370347","0.0-8.0-0.2","","","","","","null","<div style=""font-size:160px;"">+</div>","null","fixation","","","",""
"image-keyboard-response","540","371006","0.0-8.0-1.2","","","","","","null","img/red47.png","null","display","","","650",""
"image-keyboard-response","541","371107","0.0-8.0-2.2","","","","","","null","img/mask.png","null"," mask","","","",""
"html-keyboard-response","542","371514","0.0-8.0-3.2","","","","","","407","
    <div style='float: center;'><img src='img/response_scr.png'></img>
	","j","response","j","true","","650"
"html-keyboard-response","543","372516","0.0-8.0-0.3","","","","","","null","<div style=""font-size:160px;"">+</div>","null","fixation","","","",""
"image-keyboard-response","544","372775","0.0-8.0-1.3","","","","","","null","img/blue15.png","null","display","","","250",""
"image-keyboard-response","545","372877","0.0-8.0-2.3","","","","","","null","img/mask.png","null"," mask","","","",""
"html-keyboard-response","546","373469","0.0-8.0-3.3","","","","","","591","
    <div style='float: center;'><img src='img/response_scr.png'></img>
	","f","response","f","true","","250"
"html-keyboard-response","547","374471","0.0-8.0-0.4","","","","","","null","<div style=""font-size:160px;"">+</div>","null","fixation","","","",""
"image-keyboard-response","548","374973","0.0-8.0-1.4","","","","","","null","img/red53.png","null","display","","","500",""
"image-keyboard-response","549","375074","0.0-8.0-2.4","","","","","","null","img/mask.png","null"," mask","","","",""
"html-keyboard-response","550","375344","0.0-8.0-3.4","","","","","","270","
    <div style='float: center;'><img src='img/response_scr.png'></img>
	","j","response","j","true","","500"
"html-keyboard-response","551","376146","0.0-8.0-0.5","","","","","","null","<div style=""font-size:160px;"">+</div>","null","fixation","","","",""
"image-keyboard-response","552","378148","0.0-8.0-1.5","","","","","","null","img/red6.png","null","display","","","2000",""
"image-keyboard-response","553","378250","0.0-8.0-2.5","","","","","","null","img/mask.png","null"," mask","","","",""
"html-keyboard-response","554","378526","0.0-8.0-3.5","","","","","","275","
    <div style='float: center;'><img src='img/response_scr.png'></img>
	","j","response","j","true","","2000"
"html-keyboard-response","555","379528","0.0-8.0-0.6","","","","","","null","<div style=""font-size:160px;"">+</div>","null","fixation","","","",""
"image-keyboard-response","556","379629","0.0-8.0-1.6","","","","","","null","img/red8.png","null","display","","","100",""
"image-keyboard-response","557","379730","0.0-8.0-2.6","","","","","","null","img/mask.png","null"," mask","","","",""
"html-keyboard-response","558","380384","0.0-8.0-3.6","","","","","","653","
    <div style='float: center;'><img src='img/response_scr.png'></img>
	","f","response","j","false","","100"
"html-keyboard-response","559","381185","0.0-8.0-0.7","","","","","","null","<div style=""font-size:160px;"">+</div>","null","fixation","","","",""
"image-keyboard-response","560","384187","0.0-8.0-1.7","","","","","","null","img/red28.png","null","display","","","3000",""
"image-keyboard-response","561","384288","0.0-8.0-2.7","","","","","","null","img/mask.png","null"," mask","","","",""
"html-keyboard-response","562","384588","0.0-8.0-3.7","","","","","","300","
    <div style='float: center;'><img src='img/response_scr.png'></img>
	","j","response","j","true","","3000"
"html-keyboard-response","563","385790","0.0-8.0-0.8","","","","","","null","<div style=""font-size:160px;"">+</div>","null","fixation","","","",""
"image-keyboard-response","564","387792","0.0-8.0-1.8","","","","","","null","img/red27.png","null","display","","","2000",""
"image-keyboard-response","565","387893","0.0-8.0-2.8","","","","","","null","img/mask.png","null"," mask","","","",""
"html-keyboard-response","566","389225","0.0-8.0-3.8","","","","","","1332","
    <div style='float: center;'><img src='img/response_scr.png'></img>
	","j","response","j","true","","2000"
"html-keyboard-response","567","390226","0.0-8.0-0.9","","","","","","null","<div style=""font-size:160px;"">+</div>","null","fixation","","","",""
"image-keyboard-response","568","391228","0.0-8.0-1.9","","","","","","null","img/sanityblue2.png","null","display","","","1000",""
"image-keyboard-response","569","391329","0.0-8.0-2.9","","","","","","null","img/mask.png","null"," mask","","","",""
"html-keyboard-response","570","392105","0.0-8.0-3.9","","","","","","775","
    <div style='float: center;'><img src='img/response_scr.png'></img>
	","f","response","f","true","","1000"
"html-keyboard-response","571","393306","0.0-8.0-0.10","","","","","","null","<div style=""font-size:160px;"">+</div>","null","fixation","","","",""
"image-keyboard-response","572","395309","0.0-8.0-1.10","","","","","","null","img/blue1.png","null","display","","","2000",""
"image-keyboard-response","573","395411","0.0-8.0-2.10","","","","","","null","img/mask.png","null"," mask","","","",""
"html-keyboard-response","574","395817","0.0-8.0-3.10","","","","","","405","
    <div style='float: center;'><img src='img/response_scr.png'></img>
	","f","response","f","true","","2000"
"html-keyboard-response","575","396819","0.0-8.0-0.11","","","","","","null","<div style=""font-size:160px;"">+</div>","null","fixation","","","",""
"image-keyboard-response","576","396920","0.0-8.0-1.11","","","","","","null","img/blue26.png","null","display","","","100",""
"image-keyboard-response","577","397022","0.0-8.0-2.11","","","","","","null","img/mask.png","null"," mask","","","",""
"html-keyboard-response","578","398395","0.0-8.0-3.11","","","","","","1372","
    <div style='float: center;'><img src='img/response_scr.png'></img>
	","j","response","f","false","","100"
"html-keyboard-response","579","399597","0.0-8.0-0.12","","","","","","null","<div style=""font-size:160px;"">+</div>","null","fixation","","","",""
"image-keyboard-response","580","399699","0.0-8.0-1.12","","","","","","null","img/blue8.png","null","display","","","100",""
"image-keyboard-response","581","399800","0.0-8.0-2.12","","","","","","null","img/mask.png","null"," mask","","","",""
"html-keyboard-response","582","401313","0.0-8.0-3.12","","","","","","1511","
    <div style='float: center;'><img src='img/response_scr.png'></img>
	","f","response","f","true","","100"
"html-keyboard-response","583","401914","0.0-8.0-0.13","","","","","","null","<div style=""font-size:160px;"">+</div>","null","fixation","","","",""
"image-keyboard-response","584","403916","0.0-8.0-1.13","","","","","","null","img/red16.png","null","display","","","2000",""
"image-keyboard-response","585","404018","0.0-8.0-2.13","","","","","","null","img/mask.png","null"," mask","","","",""
"html-keyboard-response","586","405612","0.0-8.0-3.13","","","","","","1593","
    <div style='float: center;'><img src='img/response_scr.png'></img>
	","j","response","j","true","","2000"
"html-keyboard-response","587","406213","0.0-8.0-0.14","","","","","","null","<div style=""font-size:160px;"">+</div>","null","fixation","","","",""
"image-keyboard-response","588","409214","0.0-8.0-1.14","","","","","","null","img/red33.png","null","display","","","3000",""
"image-keyboard-response","589","409316","0.0-8.0-2.14","","","","","","null","img/mask.png","null"," mask","","","",""
"html-keyboard-response","590","410666","0.0-8.0-3.14","","","","","","1349","
    <div style='float: center;'><img src='img/response_scr.png'></img>
	","j","response","j","true","","3000"
"html-keyboard-response","591","411467","0.0-8.0-0.15","","","","","","null","<div style=""font-size:160px;"">+</div>","null","fixation","","","",""
"image-keyboard-response","592","413469","0.0-8.0-1.15","","","","","","null","img/red5.png","null","display","","","2000",""
"image-keyboard-response","593","413571","0.0-8.0-2.15","","","","","","null","img/mask.png","null"," mask","","","",""
"html-keyboard-response","594","413868","0.0-8.0-3.15","","","","","","296","
    <div style='float: center;'><img src='img/response_scr.png'></img>
	","j","response","j","true","","2000"
"html-keyboard-response","595","414670","0.0-8.0-0.16","","","","","","null","<div style=""font-size:160px;"">+</div>","null","fixation","","","",""
"image-keyboard-response","596","414772","0.0-8.0-1.16","","","","","","null","img/red32.png","null","display","","","100",""
"image-keyboard-response","597","414873","0.0-8.0-2.16","","","","","","null","img/mask.png","null"," mask","","","",""
"html-keyboard-response","598","416875","0.0-8.0-3.16","","","","","","null","
    <div style='float: center;'><img src='img/response_scr.png'></img>
	","null","response","j","false","","100"
"html-keyboard-response","599","418876","0.0-8.0-4.16-0.16","","","","","","null","Response too slow. Please respond quicker next time!","null","warning","","","",""
"html-keyboard-response","600","419677","0.0-8.0-0.17","","","","","","null","<div style=""font-size:160px;"">+</div>","null","fixation","","","",""
"image-keyboard-response","601","420678","0.0-8.0-1.17","","","","","","null","img/red37.png","null","display","","","1000",""
"image-keyboard-response","602","420780","0.0-8.0-2.17","","","","","","null","img/mask.png","null"," mask","","","",""
"html-keyboard-response","603","421060","0.0-8.0-3.17","","","","","","279","
    <div style='float: center;'><img src='img/response_scr.png'></img>
	","j","response","j","true","","1000"
"html-keyboard-response","604","422262","0.0-8.0-0.18","","","","","","null","<div style=""font-size:160px;"">+</div>","null","fixation","","","",""
"image-keyboard-response","605","422914","0.0-8.0-1.18","","","","","","null","img/red11.png","null","display","","","650",""
"image-keyboard-response","606","423015","0.0-8.0-2.18","","","","","","null","img/mask.png","null"," mask","","","",""
"html-keyboard-response","607","424074","0.0-8.0-3.18","","","","","","1058","
    <div style='float: center;'><img src='img/response_scr.png'></img>
	","j","response","j","true","","650"
"html-keyboard-response","608","424876","0.0-8.0-0.19","","","","","","null","<div style=""font-size:160px;"">+</div>","null","fixation","","","",""
"image-keyboard-response","609","425527","0.0-8.0-1.19","","","","","","null","img/red20.png","null","display","","","650",""
"image-keyboard-response","610","425628","0.0-8.0-2.19","","","","","","null","img/mask.png","null"," mask","","","",""
"html-keyboard-response","611","425986","0.0-8.0-3.19","","","","","","357","
    <div style='float: center;'><img src='img/response_scr.png'></img>
	","f","response","j","false","","650"
"html-keyboard-response","612","427188","0.0-8.0-0.20","","","","","","null","<div style=""font-size:160px;"">+</div>","null","fixation","","","",""
"image-keyboard-response","613","428190","0.0-8.0-1.20","","","","","","null","img/red24.png","null","display","","","1000",""
"image-keyboard-response","614","428291","0.0-8.0-2.20","","","","","","null","img/mask.png","null"," mask","","","",""
"html-keyboard-response","615","428582","0.0-8.0-3.20","","","","","","291","
    <div style='float: center;'><img src='img/response_scr.png'></img>
	","j","response","j","true","","1000"
"html-keyboard-response","616","429784","0.0-8.0-0.21","","","","","","null","<div style=""font-size:160px;"">+</div>","null","fixation","","","",""
"image-keyboard-response","617","430036","0.0-8.0-1.21","","","","","","null","img/blue38.png","null","display","","","250",""
"image-keyboard-response","618","430138","0.0-8.0-2.21","","","","","","null","img/mask.png","null"," mask","","","",""
"html-keyboard-response","619","430855","0.0-8.0-3.21","","","","","","716","
    <div style='float: center;'><img src='img/response_scr.png'></img>
	","j","response","f","false","","250"
"html-keyboard-response","620","431456","0.0-8.0-0.22","","","","","","null","<div style=""font-size:160px;"">+</div>","null","fixation","","","",""
"image-keyboard-response","621","431707","0.0-8.0-1.22","","","","","","null","img/sanityblue8.png","null","display","","","250",""
"image-keyboard-response","622","431808","0.0-8.0-2.22","","","","","","null","img/mask.png","null"," mask","","","",""
"html-keyboard-response","623","432619","0.0-8.0-3.22","","","","","","811","
    <div style='float: center;'><img src='img/response_scr.png'></img>
	","f","response","f","true","","250"
"html-keyboard-response","624","433421","0.0-8.0-0.23","","","","","","null","<div style=""font-size:160px;"">+</div>","null","fixation","","","",""
"image-keyboard-response","625","436423","0.0-8.0-1.23","","","","","","null","img/blue7.png","null","display","","","3000",""
"image-keyboard-response","626","436524","0.0-8.0-2.23","","","","","","null","img/mask.png","null"," mask","","","",""
"html-keyboard-response","627","436862","0.0-8.0-3.23","","","","","","338","
    <div style='float: center;'><img src='img/response_scr.png'></img>
	","f","response","f","true","","3000"
"html-keyboard-response","628","437864","0.0-8.0-0.24","","","","","","null","<div style=""font-size:160px;"">+</div>","null","fixation","","","",""
"image-keyboard-response","629","438116","0.0-8.0-1.24","","","","","","null","img/red46.png","null","display","","","250",""
"image-keyboard-response","630","438218","0.0-8.0-2.24","","","","","","null","img/mask.png","null"," mask","","","",""
"html-keyboard-response","631","439288","0.0-8.0-3.24","","","","","","1070","
    <div style='float: center;'><img src='img/response_scr.png'></img>
	","j","response","j","true","","250"
"html-keyboard-response","632","439889","0.0-8.0-0.25","","","","","","null","<div style=""font-size:160px;"">+</div>","null","fixation","","","",""
"image-keyboard-response","633","440540","0.0-8.0-1.25","","","","","","null","img/blue18.png","null","display","","","650",""
"image-keyboard-response","634","440643","0.0-8.0-2.25","","","","","","null","img/mask.png","null"," mask","","","",""
"html-keyboard-response","635","441202","0.0-8.0-3.25","","","","","","559","
    <div style='float: center;'><img src='img/response_scr.png'></img>
	","f","response","f","true","","650"
"html-keyboard-response","636","441803","0.0-8.0-0.26","","","","","","null","<div style=""font-size:160px;"">+</div>","null","fixation","","","",""
"image-keyboard-response","637","441904","0.0-8.0-1.26","","","","","","null","img/blue20.png","null","display","","","100",""
"image-keyboard-response","638","442006","0.0-8.0-2.26","","","","","","null","img/mask.png","null"," mask","","","",""
"html-keyboard-response","639","443022","0.0-8.0-3.26","","","","","","1016","
    <div style='float: center;'><img src='img/response_scr.png'></img>
	","f","response","f","true","","100"
"html-keyboard-response","640","444224","0.0-8.0-0.27","","","","","","null","<div style=""font-size:160px;"">+</div>","null","fixation","","","",""
"image-keyboard-response","641","446226","0.0-8.0-1.27","","","","","","null","img/red25.png","null","display","","","2000",""
"image-keyboard-response","642","446332","0.0-8.0-2.27","","","","","","null","img/mask.png","null"," mask","","","",""
"html-keyboard-response","643","446564","0.0-8.0-3.27","","","","","","230","
    <div style='float: center;'><img src='img/response_scr.png'></img>
	","j","response","j","true","","2000"
"html-keyboard-response","644","447365","0.0-8.0-0.28","","","","","","null","<div style=""font-size:160px;"">+</div>","null","fixation","","","",""
"image-keyboard-response","645","448366","0.0-8.0-1.28","","","","","","null","img/blue35.png","null","display","","","1000",""
"image-keyboard-response","646","448468","0.0-8.0-2.28","","","","","","null","img/mask.png","null"," mask","","","",""
"html-keyboard-response","647","448894","0.0-8.0-3.28","","","","","","425","
    <div style='float: center;'><img src='img/response_scr.png'></img>
	","j","response","f","false","","1000"
"html-keyboard-response","648","449496","0.0-8.0-0.29","","","","","","null","<div style=""font-size:160px;"">+</div>","null","fixation","","","",""
"image-keyboard-response","649","450148","0.0-8.0-1.29","","","","","","null","img/red13.png","null","display","","","650",""
"image-keyboard-response","650","450249","0.0-8.0-2.29","","","","","","null","img/mask.png","null"," mask","","","",""
"html-keyboard-response","651","450545","0.0-8.0-3.29","","","","","","295","
    <div style='float: center;'><img src='img/response_scr.png'></img>
	","f","response","j","false","","650"
"html-keyboard-response","652","451347","0.0-8.0-0.30","","","","","","null","<div style=""font-size:160px;"">+</div>","null","fixation","","","",""
"image-keyboard-response","653","451848","0.0-8.0-1.30","","","","","","null","img/red18.png","null","display","","","500",""
"image-keyboard-response","654","451950","0.0-8.0-2.30","","","","","","null","img/mask.png","null"," mask","","","",""
"html-keyboard-response","655","452290","0.0-8.0-3.30","","","","","","339","
    <div style='float: center;'><img src='img/response_scr.png'></img>
	","f","response","j","false","","500"
"html-keyboard-response","656","453091","0.0-8.0-0.31","","","","","","null","<div style=""font-size:160px;"">+</div>","null","fixation","","","",""
"image-keyboard-response","657","453343","0.0-8.0-1.31","","","","","","null","img/blue9.png","null","display","","","250",""
"image-keyboard-response","658","453444","0.0-8.0-2.31","","","","","","null","img/mask.png","null"," mask","","","",""
"html-keyboard-response","659","454204","0.0-8.0-3.31","","","","","","760","
    <div style='float: center;'><img src='img/response_scr.png'></img>
	","f","response","f","true","","250"
"html-keyboard-response","660","454805","0.0-8.0-0.32","","","","","","null","<div style=""font-size:160px;"">+</div>","null","fixation","","","",""
"image-keyboard-response","661","455807","0.0-8.0-1.32","","","","","","null","img/red21.png","null","display","","","1000",""
"image-keyboard-response","662","455908","0.0-8.0-2.32","","","","","","null","img/mask.png","null"," mask","","","",""
"html-keyboard-response","663","456138","0.0-8.0-3.32","","","","","","229","
    <div style='float: center;'><img src='img/response_scr.png'></img>
	","j","response","j","true","","1000"
"html-keyboard-response","664","457339","0.0-8.0-0.33","","","","","","null","<div style=""font-size:160px;"">+</div>","null","fixation","","","",""
"image-keyboard-response","665","458341","0.0-8.0-1.33","","","","","","null","img/red15.png","null","display","","","1000",""
"image-keyboard-response","666","458443","0.0-8.0-2.33","","","","","","null","img/mask.png","null"," mask","","","",""
"html-keyboard-response","667","458696","0.0-8.0-3.33","","","","","","253","
    <div style='float: center;'><img src='img/response_scr.png'></img>
	","j","response","j","true","","1000"
"html-keyboard-response","668","459897","0.0-8.0-0.34","","","","","","null","<div style=""font-size:160px;"">+</div>","null","fixation","","","",""
"image-keyboard-response","669","460899","0.0-8.0-1.34","","","","","","null","img/red19.png","null","display","","","1000",""
"image-keyboard-response","670","460999","0.0-8.0-2.34","","","","","","null","img/mask.png","null"," mask","","","",""
"html-keyboard-response","671","461518","0.0-8.0-3.34","","","","","","518","
    <div style='float: center;'><img src='img/response_scr.png'></img>
	","j","response","j","true","","1000"
"html-keyboard-response","672","462519","0.0-8.0-0.35","","","","","","null","<div style=""font-size:160px;"">+</div>","null","fixation","","","",""
