"","subject","trial","block","display","screen","response","rt","stimDur","correct","correctResponse","stimulus","sanity","bias","simDur.raw"
"1","1",1,1,"Trial","Response",0,810,100,1,0,"red148.png",0,"blue","100.41800000000512"
"2","1",2,1,"Trial","Response",0,404,1000,1,0,"red5.png",0,"blue","1001.0299999999988"
"3","1",3,1,"Trial","Response",1,678,3000,1,1,"blue47.png",0,"blue","3002.820000000007"
"4","1",4,1,"Trial","Response",1,354,750,1,1,"blue168.png",0,"blue","750.679999999993"
"5","1",5,1,"Trial","Response",0,323,300,0,1,"blue200.png",0,"blue","300.33300000001327"
"6","1",6,1,"Trial","Response",1,356,100,1,1,"blue135.png",0,"blue","99.80199999999604"
"7","1",7,1,"Trial","Response",1,483,500,0,0,"red147.png",0,"blue","500.5020000000077"
"8","1",8,1,"Trial","Response",0,496,3000,1,0,"red143.png",0,"blue","3003.162000000011"
"9","1",9,1,"Trial","Response",0,309,600,1,0,"sanityred9.png",1,"blue","600.7690000000002"
"10","1",10,1,"Trial","Response",0,562,300,1,0,"red82.png",0,"blue","300.2600000000093"
"11","1",11,1,"Trial","Response",1,364,100,1,1,"blue179.png",0,"blue","99.72400000001653"
"12","1",12,1,"Trial","Response",0,65,3000,1,0,"red198.png",0,"blue","3003.011999999988"
"13","1",13,1,"Trial","Response",1,513,100,1,1,"blue141.png",0,"blue","100.03200000000652"
"14","1",14,1,"Trial","Response",1,358,1000,1,1,"blue153.png",0,"blue","1001.0350000000035"
"15","1",15,1,"Trial","Response",0,569,500,0,1,"blue95.png",0,"blue","500.7710000000079"
"16","1",16,1,"Trial","Response",1,405,500,1,1,"blue19.png",0,"blue","500.47099999999045"
"17","1",17,1,"Trial","Response",1,368,1000,1,1,"blue34.png",0,"blue","1001.0469999999914"
"18","1",18,1,"Trial","Response",1,322,100,0,0,"red172.png",0,"blue","99.76800000001094"
"19","1",19,1,"Trial","Response",1,805,750,1,1,"blue12.png",0,"blue","750.75"
"20","1",20,1,"Trial","Response",1,340,500,1,1,"blue122.png",0,"blue","500.5430000000051"
"21","1",21,1,"Trial","Response",1,260,600,1,1,"sanityblue12.png",1,"blue","600.5840000000026"
"22","1",22,1,"Trial","Response",0,366,100,0,1,"blue182.png",0,"blue","99.72299999999814"
"23","1",23,1,"Trial","Response",1,383,300,1,1,"blue105.png",0,"blue","300.2839999999851"
"24","1",24,1,"Trial","Response",1,301,600,1,1,"sanityblue16.png",1,"blue","600.7539999999863"
"25","1",25,1,"Trial","Response",1,230,750,1,1,"blue84.png",0,"blue","750.7570000000123"
"26","1",26,1,"Trial","Response",1,300,500,1,1,"blue2.png",0,"blue","500.5"
"27","1",27,1,"Trial","Response",1,321,1000,1,1,"blue149.png",0,"blue","1001.2600000000093"
"28","1",28,1,"Trial","Response",1,393,300,1,1,"blue91.png",0,"blue","300.0260000000126"
"29","1",29,1,"Trial","Response",0,432,600,1,0,"sanityred14.png",1,"blue","600.5860000000102"
"30","1",30,1,"Trial","Response",1,398,600,1,1,"sanityblue8.png",1,"blue","600.5229999999865"
"31","1",31,1,"Trial","Response",0,357,3000,1,0,"red110.png",0,"blue","3002.7189999999828"
"32","1",32,1,"Trial","Response",0,898,100,0,1,"blue164.png",0,"blue","99.77600000001257"
"33","1",33,1,"Trial","Response",0,248,1000,1,0,"red43.png",0,"blue","1001.0219999999972"
"34","1",34,1,"Trial","Response",0,366,300,1,0,"red24.png",0,"blue","300.41400000001886"
"35","1",35,1,"Trial","Response",0,682,100,1,0,"red103.png",0,"blue","100.02900000003865"
"36","1",36,1,"Trial","Response",1,428,750,0,0,"red69.png",0,"blue","750.7419999999693"
"37","1",37,1,"Trial","Response",1,444,3000,1,1,"blue49.png",0,"blue","3003.024999999965"
"38","1",38,1,"Trial","Response",1,338,100,0,0,"red131.png",0,"blue","100.17500000004657"
"39","1",39,1,"Trial","Response",1,413,1000,1,1,"blue158.png",0,"blue","1000.9750000000349"
"40","1",40,1,"Trial","Response",1,563,750,0,0,"red174.png",0,"blue","750.7749999999651"
"41","1",41,1,"Trial","Response",1,420,100,1,1,"blue55.png",0,"blue","100.10899999999674"
"42","1",42,1,"Trial","Response",0,354,750,0,1,"blue103.png",0,"blue","750.9830000000075"
"43","1",43,1,"Trial","Response",0,494,500,0,1,"blue172.png",0,"blue","500.5009999999893"
"44","1",44,1,"Trial","Response",1,296,1000,1,1,"blue189.png",0,"blue","1000.9490000000224"
"45","1",45,1,"Trial","Response",0,322,750,1,0,"red134.png",0,"blue","751.0219999999972"
"46","1",46,1,"Trial","Response",1,336,3000,1,1,"blue13.png",0,"blue","3003.3979999999865"
"47","1",47,1,"Trial","Response",1,385,300,1,1,"blue152.png",0,"blue","300.00500000000466"
"48","1",48,1,"Trial","Response",1,284,600,1,1,"sanityblue5.png",1,"blue","600.5999999999767"
"49","1",49,1,"Trial","Response",0,373,500,1,0,"red112.png",0,"blue","500.3839999999618"
"50","1",50,1,"Trial","Response",1,293,1000,1,1,"blue41.png",0,"blue","1001.015000000014"
"51","1",51,1,"Trial","Response",1,347,750,1,1,"blue195.png",0,"blue","750.6959999999963"
"52","1",52,1,"Trial","Response",0,617,750,1,0,"red132.png",0,"blue","750.7669999999925"
"53","1",53,1,"Trial","Response",0,299,1000,0,1,"blue142.png",0,"blue","1001.3279999999795"
"54","1",54,1,"Trial","Response",0,337,100,1,0,"red36.png",0,"blue","100.14500000001863"
"55","1",55,1,"Trial","Response",1,212,3000,1,1,"blue185.png",0,"blue","3003.0080000000307"
"56","1",56,1,"Trial","Response",1,366,100,1,1,"blue191.png",0,"blue","100.07999999995809"
"57","1",57,1,"Trial","Response",1,365,600,1,1,"sanityblue14.png",1,"blue","600.5520000000251"
"58","1",58,1,"Trial","Response",0,399,500,1,0,"red9.png",0,"blue","500.3220000000438"
"59","1",59,1,"Trial","Response",0,328,500,0,1,"blue151.png",0,"blue","500.50599999999395"
"60","1",60,1,"Trial","Response",1,609,750,1,1,"blue57.png",0,"blue","750.5779999999795"
"61","1",61,1,"Trial","Response",0,320,3000,1,0,"red79.png",0,"blue","3003.0250000000233"
"62","1",62,1,"Trial","Response",0,960,300,1,0,"red46.png",0,"blue","300.4010000000126"
"63","1",63,1,"Trial","Response",1,188,1000,0,0,"red25.png",0,"blue","1000.9850000000442"
"64","1",64,1,"Trial","Response",0,267,600,1,0,"sanityred8.png",1,"blue","600.8169999999809"
"65","1",65,1,"Trial","Response",1,271,500,1,1,"blue7.png",0,"blue","500.50800000003073"
"66","1",66,1,"Trial","Response",0,304,500,1,0,"red136.png",0,"blue","500.5199999999604"
"67","1",67,1,"Trial","Response",0,441,750,0,1,"blue114.png",0,"blue","750.5430000000051"
"68","1",68,1,"Trial","Response",1,731,3000,1,1,"blue196.png",0,"blue","3003.0080000000307"
"69","1",69,1,"Trial","Response",0,772,500,0,1,"blue46.png",0,"blue","500.51699999999255"
"70","1",70,1,"Trial","Response",1,434,3000,1,1,"blue76.png",0,"blue","3002.9980000000214"
"71","1",71,1,"Trial","Response",0,401,300,0,1,"blue89.png",0,"blue","300.30099999997765"
"72","1",72,1,"Trial","Response",0,237,600,1,0,"sanityred2.png",1,"blue","600.5939999999828"
"73","1",73,1,"Trial","Response",1,934,300,1,1,"blue71.png",0,"blue","300.2730000000447"
"74","1",74,1,"Trial","Response",0,544,100,1,0,"red30.png",0,"blue","100.11100000003353"
"75","1",75,1,"Trial","Response",0,611,100,0,1,"blue169.png",0,"blue","100.06199999997625"
"76","1",76,1,"Trial","Response",1,266,750,1,1,"blue48.png",0,"blue","750.7010000000009"
"77","1",77,1,"Trial","Response",0,644,100,0,1,"blue85.png",0,"blue","100.07500000001164"
"78","1",78,1,"Trial","Response",0,268,1000,1,0,"red93.png",0,"blue","1000.7909999999683"
"79","1",79,1,"Trial","Response",0,417,300,1,0,"red195.png",0,"blue","300.01900000002934"
"80","1",80,1,"Trial","Response",1,355,3000,1,1,"blue86.png",0,"blue","3003.0350000000326"
"81","1",81,1,"Trial","Response",1,148,750,1,1,"blue137.png",0,"blue","750.6609999999637"
"82","1",82,1,"Trial","Response",0,248,500,0,1,"blue67.png",0,"blue","500.70900000003166"
"83","1",83,1,"Trial","Response",0,131,750,1,0,"red190.png",0,"blue","750.5760000000009"
"84","1",84,1,"Trial","Response",1,346,1000,1,1,"blue134.png",0,"blue","1000.7469999999739"
"85","1",85,1,"Trial","Response",1,1053,300,1,1,"blue79.png",0,"blue","300.3040000000037"
"86","1",86,1,"Trial","Response",0,358,3000,1,0,"red37.png",0,"blue","3003.0540000000037"
"87","1",87,1,"Trial","Response",0,312,500,1,0,"red200.png",0,"blue","500.7870000000112"
"88","1",88,1,"Trial","Response",1,317,3000,1,1,"blue92.png",0,"blue","3002.793000000005"
"89","1",89,1,"Trial","Response",0,256,750,1,0,"red123.png",0,"blue","750.76800000004"
"90","1",90,1,"Trial","Response",1,512,300,0,0,"red164.png",0,"blue","300.2579999999725"
"91","1",91,1,"Trial","Response",0,594,300,0,1,"blue4.png",0,"blue","300.2239999999874"
"92","1",92,1,"Trial","Response",1,1084,600,1,1,"sanityblue18.png",1,"blue","600.6060000000289"
"93","1",93,1,"Trial","Response",0,976,1000,1,0,"red72.png",0,"blue","1001.0599999999977"
"94","1",94,1,"Trial","Response",0,2002,1000,0,0,"red137.png",0,"blue","1000.9220000000205"
"95","1",95,1,"Trial","Response",1,296,300,1,1,"blue133.png",0,"blue","300.32600000000093"
"96","1",96,1,"Trial","Response",0,394,300,1,0,"red16.png",0,"blue","300.3620000000228"
"97","1",97,1,"Trial","Response",0,254,3000,1,0,"red181.png",0,"blue","3002.9700000000303"
"98","1",98,1,"Trial","Response",1,595,500,0,0,"red160.png",0,"blue","500.4770000000135"
"99","1",99,1,"Trial","Response",1,240,1000,1,1,"blue159.png",0,"blue","1001.0349999999744"
"100","1",100,1,"Trial","Response",1,386,3000,1,1,"blue176.png",0,"blue","3003.0359999999637"
"101","1",101,2,"Trial","Response",1,330,1000,1,1,"blue30.png",0,"blue","1000.9340000000084"
"102","1",102,2,"Trial","Response",0,243,600,1,0,"sanityred8.png",1,"blue","600.234999999986"
"103","1",103,2,"Trial","Response",1,351,500,0,0,"red10.png",0,"blue","500.5019999999786"
"104","1",104,2,"Trial","Response",1,567,100,0,0,"red63.png",0,"blue","100.07500000006985"
"105","1",105,2,"Trial","Response",1,266,600,1,1,"sanityblue18.png",1,"blue","600.545999999973"
"106","1",106,2,"Trial","Response",1,344,750,0,0,"red94.png",0,"blue","750.688000000082"
"107","1",107,2,"Trial","Response",1,534,1000,1,1,"blue137.png",0,"blue","1001.0300000000279"
"108","1",108,2,"Trial","Response",0,302,1000,1,0,"red61.png",0,"blue","1001.0449999999255"
"109","1",109,2,"Trial","Response",1,314,500,1,1,"blue176.png",0,"blue","500.2970000000205"
"110","1",110,2,"Trial","Response",0,254,3000,1,0,"red89.png",0,"blue","3002.987000000081"
"111","1",111,2,"Trial","Response",1,488,100,0,0,"red80.png",0,"blue","100.09199999994598"
"112","1",112,2,"Trial","Response",1,379,500,1,1,"blue149.png",0,"blue","500.48100000002887"
"113","1",113,2,"Trial","Response",1,392,500,1,1,"blue158.png",0,"blue","500.4989999999525"
"114","1",114,2,"Trial","Response",0,352,300,1,0,"red72.png",0,"blue","300.36900000006426"
"115","1",115,2,"Trial","Response",1,298,500,0,0,"red121.png",0,"blue","500.46000000007916"
"116","1",116,2,"Trial","Response",1,503,100,1,1,"blue166.png",0,"blue","99.752000000095"
"117","1",117,2,"Trial","Response",1,333,100,1,1,"blue128.png",0,"blue","99.94200000003912"
"118","1",118,2,"Trial","Response",0,1103,100,1,0,"red68.png",0,"blue","100.01999999990221"
"119","1",119,2,"Trial","Response",0,377,100,1,0,"red81.png",0,"blue","100.03000000002794"
"120","1",120,2,"Trial","Response",0,527,100,0,1,"blue122.png",0,"blue","100.07699999993201"
"121","1",121,2,"Trial","Response",1,667,500,0,0,"red43.png",0,"blue","500.5030000000261"
"122","1",122,2,"Trial","Response",0,755,300,1,0,"red183.png",0,"blue","300.3079999999609"
"123","1",123,2,"Trial","Response",1,232,1000,1,1,"blue133.png",0,"blue","1001.1280000000261"
"124","1",124,2,"Trial","Response",1,179,500,1,1,"blue28.png",0,"blue","500.07700000004843"
"125","1",125,2,"Trial","Response",0,320,500,0,1,"blue20.png",0,"blue","500.58400000003166"
"126","1",126,2,"Trial","Response",0,271,3000,0,1,"blue39.png",0,"blue","3002.9860000000335"
"127","1",127,2,"Trial","Response",1,321,1000,1,1,"blue186.png",0,"blue","1000.9760000000242"
"128","1",128,2,"Trial","Response",1,314,3000,1,1,"blue33.png",0,"blue","3002.9550000000745"
"129","1",129,2,"Trial","Response",0,2002,600,0,0,"sanityred15.png",1,"blue","600.670999999973"
"130","1",130,2,"Trial","Response",0,477,100,0,1,"blue130.png",0,"blue","100.25399999995716"
"131","1",131,2,"Trial","Response",1,239,600,1,1,"sanityblue11.png",1,"blue","600.561999999918"
"132","1",132,2,"Trial","Response",0,575,500,0,1,"blue127.png",0,"blue","500.51500000001397"
"133","1",133,2,"Trial","Response",0,321,750,1,0,"red159.png",0,"blue","750.7610000000568"
"134","1",134,2,"Trial","Response",1,315,300,1,1,"blue86.png",0,"blue","300.3029999999562"
"135","1",135,2,"Trial","Response",1,561,300,1,1,"blue57.png",0,"blue","300.2870000000112"
"136","1",136,2,"Trial","Response",1,330,500,1,1,"blue192.png",0,"blue","500.4549999999581"
"137","1",137,2,"Trial","Response",0,267,750,1,0,"red172.png",0,"blue","750.783000000054"
"138","1",138,2,"Trial","Response",1,423,100,0,0,"red157.png",0,"blue","99.9989999999525"
"139","1",139,2,"Trial","Response",0,285,750,1,0,"red35.png",0,"blue","750.7510000000475"
"140","1",140,2,"Trial","Response",0,392,1000,1,0,"red158.png",0,"blue","1000.997999999905"
"141","1",141,2,"Trial","Response",1,427,100,1,1,"blue70.png",0,"blue","100.05799999996088"
"142","1",142,2,"Trial","Response",0,460,100,1,0,"red110.png",0,"blue","100.17499999993015"
"143","1",143,2,"Trial","Response",1,218,300,0,0,"red26.png",0,"blue","300.6170000000857"
"144","1",144,2,"Trial","Response",0,379,500,1,0,"red133.png",0,"blue","500.4770000000717"
"145","1",145,2,"Trial","Response",0,261,500,0,1,"blue115.png",0,"blue","500.52800000004936"
"146","1",146,2,"Trial","Response",1,295,300,1,1,"blue168.png",0,"blue","300.2530000000261"
"147","1",147,2,"Trial","Response",0,211,3000,1,0,"red181.png",0,"blue","3002.988999999943"
"148","1",148,2,"Trial","Response",0,490,100,0,1,"blue10.png",0,"blue","100.12100000004284"
"149","1",149,2,"Trial","Response",1,372,1000,1,1,"blue138.png",0,"blue","1001.0969999999506"
"150","1",150,2,"Trial","Response",0,276,1000,1,0,"red171.png",0,"blue","1001.0420000000158"
"151","1",151,2,"Trial","Response",1,306,300,1,1,"blue6.png",0,"blue","300.29300000006333"
"152","1",152,2,"Trial","Response",1,461,100,1,1,"blue148.png",0,"blue","100.11600000003818"
"153","1",153,2,"Trial","Response",0,284,500,1,0,"red137.png",0,"blue","500.4860000000335"
"154","1",154,2,"Trial","Response",1,306,300,1,1,"blue61.png",0,"blue","299.98300000000745"
"155","1",155,2,"Trial","Response",0,193,3000,1,0,"red112.png",0,"blue","3003.2519999999786"
"156","1",156,2,"Trial","Response",1,368,750,1,1,"blue183.png",0,"blue","750.7410000000382"
"157","1",157,2,"Trial","Response",0,451,3000,0,1,"blue197.png",0,"blue","3003.0229999999283"
"158","1",158,2,"Trial","Response",0,231,3000,1,0,"red78.png",0,"blue","3003.0200000000186"
"159","1",159,2,"Trial","Response",1,304,300,1,1,"blue43.png",0,"blue","300.28100000007544"
"160","1",160,2,"Trial","Response",1,264,500,1,1,"blue100.png",0,"blue","500.8510000000242"
"161","1",161,2,"Trial","Response",1,281,3000,1,1,"blue190.png",0,"blue","3003.1199999999953"
"162","1",162,2,"Trial","Response",1,148,3000,1,1,"blue189.png",0,"blue","3003.1040000000503"
"163","1",163,2,"Trial","Response",1,212,3000,1,1,"blue105.png",0,"blue","3003.0439999999944"
"164","1",164,2,"Trial","Response",1,308,3000,1,1,"blue54.png",0,"blue","3003.015000000014"
"165","1",165,2,"Trial","Response",1,313,750,1,1,"blue177.png",0,"blue","750.7310000000289"
"166","1",166,2,"Trial","Response",1,286,600,1,1,"sanityblue10.png",1,"blue","600.6060000000289"
"167","1",167,2,"Trial","Response",0,511,100,0,1,"blue182.png",0,"blue","99.9429999999702"
"168","1",168,2,"Trial","Response",0,286,750,1,0,"red174.png",0,"blue","750.7480000000214"
"169","1",169,2,"Trial","Response",0,705,300,0,1,"blue200.png",0,"blue","300.295999999973"
"170","1",170,2,"Trial","Response",1,96,600,1,1,"sanityblue9.png",1,"blue","600.984999999986"
"171","1",171,2,"Trial","Response",1,331,750,0,0,"red47.png",0,"blue","750.8170000000391"
"172","1",172,2,"Trial","Response",0,306,1000,1,0,"red111.png",0,"blue","1001.1060000000289"
"173","1",173,2,"Trial","Response",0,178,1000,0,1,"blue82.png",0,"blue","1000.9329999999609"
"174","1",174,2,"Trial","Response",1,225,1000,1,1,"blue110.png",0,"blue","1000.9860000000335"
"175","1",175,2,"Trial","Response",0,41,3000,1,0,"red189.png",0,"blue","3003.0100000000093"
"176","1",176,2,"Trial","Response",1,340,600,1,1,"sanityblue5.png",1,"blue","600.5409999999683"
"177","1",177,2,"Trial","Response",1,328,300,1,1,"blue22.png",0,"blue","300.2269999999553"
"178","1",178,2,"Trial","Response",1,262,3000,1,1,"blue95.png",0,"blue","3003.0010000000475"
"179","1",179,2,"Trial","Response",0,415,1000,0,1,"blue147.png",0,"blue","1000.9429999999702"
"180","1",180,2,"Trial","Response",0,328,3000,1,0,"red153.png",0,"blue","3002.957999999984"
"181","1",181,2,"Trial","Response",1,350,750,1,1,"blue146.png",0,"blue","750.7469999999739"
"182","1",182,2,"Trial","Response",0,297,300,1,0,"red193.png",0,"blue","300.0019999999786"
"183","1",183,2,"Trial","Response",1,141,750,1,1,"blue35.png",0,"blue","750.7569999999832"
"184","1",184,2,"Trial","Response",0,204,1000,1,0,"red96.png",0,"blue","1000.7439999999478"
"185","1",185,2,"Trial","Response",1,362,300,1,1,"blue17.png",0,"blue","300.2170000000624"
"186","1",186,2,"Trial","Response",0,2002,600,0,0,"sanityred4.png",1,"blue","600.5420000000158"
"187","1",187,2,"Trial","Response",1,264,750,1,1,"blue11.png",0,"blue","750.4890000000596"
"188","1",188,2,"Trial","Response",1,178,750,1,1,"blue98.png",0,"blue","750.7249999999767"
"189","1",189,2,"Trial","Response",1,298,3000,1,1,"blue161.png",0,"blue","3003.0139999999665"
"190","1",190,2,"Trial","Response",0,246,750,0,1,"blue32.png",0,"blue","750.7839999999851"
"191","1",191,2,"Trial","Response",1,227,750,1,1,"blue154.png",0,"blue","750.8049999999348"
"192","1",192,2,"Trial","Response",0,476,100,0,1,"blue103.png",0,"blue","99.85999999998603"
"193","1",193,2,"Trial","Response",0,283,300,1,0,"red13.png",0,"blue","299.99499999999534"
"194","1",194,2,"Trial","Response",1,212,1000,1,1,"blue49.png",0,"blue","1000.9279999999562"
"195","1",195,2,"Trial","Response",1,178,600,1,1,"sanityblue20.png",1,"blue","600.5799999999581"
"196","1",196,2,"Trial","Response",1,175,750,1,1,"blue77.png",0,"blue","750.7889999999898"
"197","1",197,2,"Trial","Response",0,266,500,1,0,"red198.png",0,"blue","500.4760000000242"
"198","1",198,2,"Trial","Response",0,59,600,1,0,"sanityred1.png",1,"blue","600.4089999999851"
"199","1",199,2,"Trial","Response",1,355,300,0,0,"red138.png",0,"blue","300.2390000000596"
"200","1",200,2,"Trial","Response",0,228,1000,1,0,"red200.png",0,"blue","1001.0939999999246"
"201","1",201,3,"Trial","Response",0,355,300,0,1,"blue50.png",0,"red","300.3200000000652"
"202","1",202,3,"Trial","Response",0,218,300,1,0,"red197.png",0,"red","300.1010000000242"
"203","1",203,3,"Trial","Response",1,215,500,0,0,"red38.png",0,"red","500.44799999997485"
"204","1",204,3,"Trial","Response",0,331,600,1,0,"sanityred5.png",1,"red","600.8240000000224"
"205","1",205,3,"Trial","Response",1,338,1000,1,1,"blue13.png",0,"red","1000.9939999999478"
"206","1",206,3,"Trial","Response",1,319,500,1,1,"blue56.png",0,"red","500.5439999999944"
"207","1",207,3,"Trial","Response",1,262,3000,1,1,"blue60.png",0,"red","3003.0139999999665"
"208","1",208,3,"Trial","Response",0,226,500,1,0,"red88.png",0,"red","500.5200000000186"
"209","1",209,3,"Trial","Response",0,327,1000,1,0,"red48.png",0,"red","1001.0259999999544"
"210","1",210,3,"Trial","Response",1,746,300,1,1,"blue199.png",0,"red","300.4470000000438"
"211","1",211,3,"Trial","Response",0,382,100,1,0,"red4.png",0,"red","100.04899999999907"
"212","1",212,3,"Trial","Response",0,349,3000,1,0,"red86.png",0,"red","3002.999000000069"
"213","1",213,3,"Trial","Response",1,450,100,0,0,"red136.png",0,"red","100.10600000002887"
"214","1",214,3,"Trial","Response",0,399,1000,1,0,"red124.png",0,"red","1001.0789999999106"
"215","1",215,3,"Trial","Response",1,408,100,1,1,"blue160.png",0,"red","100.14199999999255"
"216","1",216,3,"Trial","Response",0,328,300,1,0,"red165.png",0,"red","300.23100000002887"
"217","1",217,3,"Trial","Response",1,430,300,0,0,"red41.png",0,"red","300.3399999999674"
"218","1",218,3,"Trial","Response",0,362,300,1,0,"red81.png",0,"red","300.50600000005215"
"219","1",219,3,"Trial","Response",0,796,100,0,1,"blue87.png",0,"red","99.86300000001211"
"220","1",220,3,"Trial","Response",1,240,3000,1,1,"blue45.png",0,"red","3003.0819999999367"
"221","1",221,3,"Trial","Response",0,278,1000,1,0,"red5.png",0,"red","1000.9770000000717"
"222","1",222,3,"Trial","Response",0,763,300,0,1,"blue58.png",0,"red","300.2760000000708"
"223","1",223,3,"Trial","Response",1,796,500,0,0,"red14.png",0,"red","500.60899999993853"
"224","1",224,3,"Trial","Response",0,161,500,1,0,"red112.png",0,"red","500.6339999999618"
"225","1",225,3,"Trial","Response",1,409,100,1,1,"blue101.png",0,"red","100.13199999998324"
"226","1",226,3,"Trial","Response",0,148,600,1,0,"sanityred12.png",1,"red","600.5849999999627"
"227","1",227,3,"Trial","Response",0,377,3000,1,0,"red154.png",0,"red","3003.363000000012"
"228","1",228,3,"Trial","Response",0,143,3000,1,0,"red27.png",0,"red","3002.9670000000624"
"229","1",229,3,"Trial","Response",0,222,600,1,0,"sanityred19.png",1,"red","600.6799999999348"
"230","1",230,3,"Trial","Response",0,2002,300,0,0,"red96.png",0,"red","300.341999999946"
"231","1",231,3,"Trial","Response",0,637,100,1,0,"red151.png",0,"red","99.8849999998929"
"232","1",232,3,"Trial","Response",1,179,750,1,1,"blue157.png",0,"red","750.655999999959"
"233","1",233,3,"Trial","Response",0,85,750,1,0,"red195.png",0,"red","750.484999999986"
"234","1",234,3,"Trial","Response",0,121,500,1,0,"red23.png",0,"red","500.5529999999562"
"235","1",235,3,"Trial","Response",0,144,500,1,0,"red22.png",0,"red","500.4969999999739"
"236","1",236,3,"Trial","Response",0,74,1000,1,0,"red55.png",0,"red","1000.9210000000894"
"237","1",237,3,"Trial","Response",0,2002,3000,0,0,"red141.png",0,"red","3002.9030000000494"
"238","1",238,3,"Trial","Response",0,591,500,0,1,"blue83.png",0,"red","500.24099999992177"
"239","1",239,3,"Trial","Response",0,346,750,1,0,"red43.png",0,"red","750.7029999999795"
"240","1",240,3,"Trial","Response",1,219,600,1,1,"sanityblue2.png",1,"red","600.6189999999478"
"241","1",241,3,"Trial","Response",1,138,600,1,1,"sanityblue18.png",1,"red","600.8769999999786"
"242","1",242,3,"Trial","Response",0,260,750,1,0,"red133.png",0,"red","750.7430000000168"
"243","1",243,3,"Trial","Response",0,410,750,1,0,"red47.png",0,"red","750.7619999999879"
"244","1",244,3,"Trial","Response",0,2002,1000,0,0,"red91.png",0,"red","1001.2739999999758"
"245","1",245,3,"Trial","Response",0,121,750,1,0,"red122.png",0,"red","750.6510000000708"
"246","1",246,3,"Trial","Response",1,2,1000,1,1,"blue11.png",0,"red","1001.0209999999497"
"247","1",247,3,"Trial","Response",1,24,750,0,0,"red149.png",0,"red","750.3819999999832"
"248","1",248,3,"Trial","Response",0,296,100,1,0,"red153.png",0,"red","99.91899999999441"
"249","1",249,3,"Trial","Response",1,254,500,0,0,"red191.png",0,"red","500.76500000001397"
"250","1",250,3,"Trial","Response",0,35,500,1,0,"red142.png",0,"red","500.48199999995995"
"251","1",251,3,"Trial","Response",1,66,750,0,0,"red180.png",0,"red","750.7049999999581"
"252","1",252,3,"Trial","Response",0,200,1000,0,1,"blue126.png",0,"red","1000.9809999999125"
"253","1",253,3,"Trial","Response",1,44,750,1,1,"blue182.png",0,"red","751.0370000000112"
"254","1",254,3,"Trial","Response",0,200,3000,1,0,"red85.png",0,"red","3002.6809999999823"
"255","1",255,3,"Trial","Response",1,607,1000,1,1,"blue74.png",0,"red","1001.3460000000196"
"256","1",256,3,"Trial","Response",1,15,3000,1,1,"blue175.png",0,"red","3003.033000000054"
"257","1",257,3,"Trial","Response",1,284,600,1,1,"sanityblue4.png",1,"red","600.6010000000242"
"258","1",258,3,"Trial","Response",0,267,3000,1,0,"red102.png",0,"red","3003.003999999957"
"259","1",259,3,"Trial","Response",1,191,750,1,1,"blue21.png",0,"red","750.7789999999804"
"260","1",260,3,"Trial","Response",1,231,750,1,1,"blue105.png",0,"red","751.2590000000782"
"261","1",261,3,"Trial","Response",1,240,3000,1,1,"blue6.png",0,"red","3003.0929999999935"
"262","1",262,3,"Trial","Response",1,198,750,1,1,"blue20.png",0,"red","750.7339999999385"
"263","1",263,3,"Trial","Response",0,185,3000,1,0,"red68.png",0,"red","3003.0169999999925"
"264","1",264,3,"Trial","Response",1,603,300,0,0,"red33.png",0,"red","300.29099999996834"
"265","1",265,3,"Trial","Response",0,209,750,1,0,"red198.png",0,"red","750.7260000000242"
"266","1",266,3,"Trial","Response",1,266,500,1,1,"blue186.png",0,"red","500.5590000000084"
"267","1",267,3,"Trial","Response",0,2002,100,0,0,"red184.png",0,"red","100.08499999996275"
"268","1",268,3,"Trial","Response",0,235,1000,1,0,"red140.png",0,"red","1000.9989999999525"
"269","1",269,3,"Trial","Response",1,499,100,1,1,"blue80.png",0,"red","100.53799999994226"
"270","1",270,3,"Trial","Response",0,409,100,1,0,"red57.png",0,"red","100.07299999997485"
"271","1",271,3,"Trial","Response",0,418,300,0,1,"blue116.png",0,"red","300.30199999990873"
"272","1",272,3,"Trial","Response",1,122,500,1,1,"blue172.png",0,"red","500.4989999999525"
"273","1",273,3,"Trial","Response",0,558,100,0,1,"blue154.png",0,"red","100.0910000000149"
"274","1",274,3,"Trial","Response",0,466,100,1,0,"red35.png",0,"red","100.10800000000745"
"275","1",275,3,"Trial","Response",0,384,300,1,0,"red183.png",0,"red","299.9290000000037"
"276","1",276,3,"Trial","Response",1,330,100,1,1,"blue166.png",0,"red","100.10299999988638"
"277","1",277,3,"Trial","Response",0,351,300,1,0,"red115.png",0,"red","300.2880000001751"
"278","1",278,3,"Trial","Response",0,217,300,0,1,"blue119.png",0,"red","300.2949999999255"
"279","1",279,3,"Trial","Response",0,278,1000,0,1,"blue26.png",0,"red","1001"
"280","1",280,3,"Trial","Response",1,620,300,1,1,"blue145.png",0,"red","300.2819999998901"
"281","1",281,3,"Trial","Response",1,562,750,1,1,"blue174.png",0,"red","750.7689999998547"
"282","1",282,3,"Trial","Response",1,222,3000,1,1,"blue4.png",0,"red","3003.0169999999925"
"283","1",283,3,"Trial","Response",0,1270,500,0,1,"blue35.png",0,"red","500.40500000002794"
"284","1",284,3,"Trial","Response",1,956,100,0,0,"red118.png",0,"red","100.11399999982677"
"285","1",285,3,"Trial","Response",1,312,3000,1,1,"blue99.png",0,"red","3002.988999999827"
"286","1",286,3,"Trial","Response",0,533,100,1,0,"red42.png",0,"red","100.22500000009313"
"287","1",287,3,"Trial","Response",0,344,300,1,0,"red8.png",0,"red","299.8739999998361"
"288","1",288,3,"Trial","Response",1,186,750,0,0,"red50.png",0,"red","750.6990000000224"
"289","1",289,3,"Trial","Response",0,169,500,1,0,"red192.png",0,"red","500.57300000009127"
"290","1",290,3,"Trial","Response",1,203,3000,0,0,"red1.png",0,"red","3003.027000000002"
"291","1",291,3,"Trial","Response",0,296,1000,1,0,"red109.png",0,"red","1000.9750000000931"
"292","1",292,3,"Trial","Response",1,136,1000,1,1,"blue98.png",0,"red","1001.0849999999627"
"293","1",293,3,"Trial","Response",0,176,600,1,0,"sanityred4.png",1,"red","600.6010000000242"
"294","1",294,3,"Trial","Response",1,156,3000,0,0,"red117.png",0,"red","3003.0580000001937"
"295","1",295,3,"Trial","Response",0,154,1000,1,0,"red21.png",0,"red","1000.9749999998603"
"296","1",296,3,"Trial","Response",1,171,600,1,1,"sanityblue16.png",1,"red","600.6010000000242"
"297","1",297,3,"Trial","Response",0,226,500,0,1,"blue61.png",0,"red","500.4650000000838"
"298","1",298,3,"Trial","Response",0,200,600,1,0,"sanityred16.png",1,"red","600.5840000000317"
"299","1",299,3,"Trial","Response",1,178,1000,0,0,"red185.png",0,"red","1000.9930000000168"
"300","1",300,3,"Trial","Response",0,163,600,1,0,"sanityred10.png",1,"red","600.5830000001006"
"301","1",301,4,"Trial","Response",0,437,300,1,0,"red89.png",0,"red","300.29000000003725"
"302","1",302,4,"Trial","Response",1,349,300,0,0,"red135.png",0,"red","300.25"
"303","1",303,4,"Trial","Response",0,194,1000,1,0,"red24.png",0,"red","1000.9840000001714"
"304","1",304,4,"Trial","Response",0,230,1000,1,0,"red75.png",0,"red","1001.0260000000708"
"305","1",305,4,"Trial","Response",1,200,3000,1,1,"blue29.png",0,"red","3003.2319999998435"
"306","1",306,4,"Trial","Response",0,309,600,1,0,"sanityred10.png",1,"red","600.6589999999851"
"307","1",307,4,"Trial","Response",1,162,500,1,1,"blue168.png",0,"red","500.5130000000354"
"308","1",308,4,"Trial","Response",0,288,1000,0,1,"blue187.png",0,"red","1000.940000000177"
"309","1",309,4,"Trial","Response",1,277,300,1,1,"blue172.png",0,"red","300.2119999998249"
"310","1",310,4,"Trial","Response",0,197,3000,1,0,"red113.png",0,"red","3002.8060000000987"
"311","1",311,4,"Trial","Response",1,455,100,1,1,"blue36.png",0,"red","99.81499999994412"
"312","1",312,4,"Trial","Response",0,229,750,1,0,"red97.png",0,"red","750.5179999999236"
"313","1",313,4,"Trial","Response",0,284,3000,1,0,"red5.png",0,"red","3003.08899999992"
"314","1",314,4,"Trial","Response",0,2002,750,0,0,"red175.png",0,"red","750.597000000067"
"315","1",315,4,"Trial","Response",0,67,600,1,0,"sanityred7.png",1,"red","600.5360000000801"
"316","1",316,4,"Trial","Response",0,272,500,1,0,"red76.png",0,"red","500.49300000001676"
"317","1",317,4,"Trial","Response",1,194,1000,0,0,"red146.png",0,"red","1000.9139999998733"
"318","1",318,4,"Trial","Response",1,113,600,1,1,"sanityblue1.png",1,"red","600.6920000000391"
"319","1",319,4,"Trial","Response",0,171,500,1,0,"red156.png",0,"red","500.2380000001285"
"320","1",320,4,"Trial","Response",0,463,100,1,0,"red185.png",0,"red","100.05300000007264"
"321","1",321,4,"Trial","Response",0,197,300,1,0,"red98.png",0,"red","300.2260000000242"
"322","1",322,4,"Trial","Response",0,368,100,1,0,"red32.png",0,"red","100.08700000005774"
"323","1",323,4,"Trial","Response",1,144,600,1,1,"sanityblue10.png",1,"red","600.3379999999888"
"324","1",324,4,"Trial","Response",0,249,300,1,0,"red39.png",0,"red","300.2620000001043"
"325","1",325,4,"Trial","Response",0,624,500,1,0,"red45.png",0,"red","500.3640000000596"
"326","1",326,4,"Trial","Response",0,343,500,1,0,"red100.png",0,"red","500.4779999998864"
"327","1",327,4,"Trial","Response",0,222,3000,1,0,"red143.png",0,"red","3002.8020000001416"
"328","1",328,4,"Trial","Response",1,70,1000,1,1,"blue30.png",0,"red","1000.6990000000224"
"329","1",329,4,"Trial","Response",0,259,1000,1,0,"red20.png",0,"red","1000.8449999999721"
"330","1",330,4,"Trial","Response",0,215,600,1,0,"sanityred2.png",1,"red","600.9930000000168"
"331","1",331,4,"Trial","Response",0,193,750,1,0,"red148.png",0,"red","750.7490000000689"
"332","1",332,4,"Trial","Response",0,180,500,1,0,"red186.png",0,"red","500.55200000014156"
"333","1",333,4,"Trial","Response",1,846,100,1,1,"blue180.png",0,"red","100.3289999999106"
"334","1",334,4,"Trial","Response",0,195,750,1,0,"red129.png",0,"red","750.7669999999925"
"335","1",335,4,"Trial","Response",1,181,500,1,1,"blue6.png",0,"red","500.49300000001676"
"336","1",336,4,"Trial","Response",0,239,3000,1,0,"red133.png",0,"red","3003.0209999999497"
"337","1",337,4,"Trial","Response",1,156,1000,1,1,"blue149.png",0,"red","1000.936999999918"
"338","1",338,4,"Trial","Response",0,397,300,1,0,"red28.png",0,"red","300.20900000003166"
"339","1",339,4,"Trial","Response",1,182,750,0,0,"red144.png",0,"red","750.7430000000168"
"340","1",340,4,"Trial","Response",0,193,600,1,0,"sanityred19.png",1,"red","600.5979999999981"
"341","1",341,4,"Trial","Response",1,136,3000,1,1,"blue76.png",0,"red","3003.0179999999236"
"342","1",342,4,"Trial","Response",0,330,500,1,0,"red71.png",0,"red","500.5439999999944"
"343","1",343,4,"Trial","Response",1,219,750,1,1,"blue75.png",0,"red","750.7719999998808"
"344","1",344,4,"Trial","Response",0,174,3000,1,0,"red165.png",0,"red","3002.776000000071"
"345","1",345,4,"Trial","Response",1,288,500,0,0,"red189.png",0,"red","500.4990000000689"
"346","1",346,4,"Trial","Response",1,652,500,1,1,"blue45.png",0,"red","500.14099999982864"
"347","1",347,4,"Trial","Response",1,168,1000,0,0,"red159.png",0,"red","1000.9520000000484"
"348","1",348,4,"Trial","Response",0,196,1000,1,0,"red66.png",0,"red","1000.9739999999292"
"349","1",349,4,"Trial","Response",1,174,3000,1,1,"blue59.png",0,"red","3003.006000000052"
"350","1",350,4,"Trial","Response",0,341,1000,0,1,"blue195.png",0,"red","1000.9320000000298"
"351","1",351,4,"Trial","Response",1,166,750,1,1,"blue34.png",0,"red","751.0760000001173"
"352","1",352,4,"Trial","Response",0,411,300,0,1,"blue193.png",0,"red","300.346000000136"
"353","1",353,4,"Trial","Response",1,193,500,1,1,"blue62.png",0,"red","500.23300000000745"
"354","1",354,4,"Trial","Response",0,316,300,1,0,"red49.png",0,"red","300.29799999995157"
"355","1",355,4,"Trial","Response",0,306,3000,1,0,"red170.png",0,"red","3003.0519999999087"
"356","1",356,4,"Trial","Response",0,313,1000,1,0,"red147.png",0,"red","1000.5389999998733"
"357","1",357,4,"Trial","Response",1,566,100,1,1,"blue147.png",0,"red","100.26799999992363"
"358","1",358,4,"Trial","Response",1,423,300,0,0,"red164.png",0,"red","300.3259999998845"
"359","1",359,4,"Trial","Response",0,343,300,0,1,"blue150.png",0,"red","300.28000000002794"
"360","1",360,4,"Trial","Response",0,120,600,1,0,"sanityred16.png",1,"red","600.5830000001006"
"361","1",361,4,"Trial","Response",0,713,300,0,1,"blue129.png",0,"red","300.34799999999814"
"362","1",362,4,"Trial","Response",0,529,100,1,0,"red29.png",0,"red","100.16500000003725"
"363","1",363,4,"Trial","Response",1,242,750,1,1,"blue155.png",0,"red","750.7359999998007"
"364","1",364,4,"Trial","Response",0,545,750,0,1,"blue55.png",0,"red","750.4459999999963"
"365","1",365,4,"Trial","Response",0,463,100,1,0,"red93.png",0,"red","100.23699999996461"
"366","1",366,4,"Trial","Response",0,332,750,1,0,"red25.png",0,"red","750.9960000000428"
"367","1",367,4,"Trial","Response",1,461,3000,0,0,"red124.png",0,"red","3002.9899999999907"
"368","1",368,4,"Trial","Response",1,467,100,1,1,"blue47.png",0,"red","100.122999999905"
"369","1",369,4,"Trial","Response",1,284,3000,1,1,"blue60.png",0,"red","3002.999000000069"
"370","1",370,4,"Trial","Response",1,173,600,1,1,"sanityblue12.png",1,"red","600.3270000000484"
"371","1",371,4,"Trial","Response",0,260,750,0,1,"blue148.png",0,"red","751.0749999999534"
"372","1",372,4,"Trial","Response",0,588,100,0,1,"blue26.png",0,"red","100.10499999998137"
"373","1",373,4,"Trial","Response",0,371,750,1,0,"red95.png",0,"red","750.8889999999665"
"374","1",374,4,"Trial","Response",0,262,500,0,1,"blue63.png",0,"red","500.4549999998417"
"375","1",375,4,"Trial","Response",0,184,1000,1,0,"red140.png",0,"red","1001.0010000001639"
"376","1",376,4,"Trial","Response",0,204,600,1,0,"sanityred14.png",1,"red","600.3489999999292"
"377","1",377,4,"Trial","Response",1,342,500,0,0,"red47.png",0,"red","500.58900000015274"
"378","1",378,4,"Trial","Response",0,187,750,0,1,"blue146.png",0,"red","750.777999999933"
"379","1",379,4,"Trial","Response",1,117,600,1,1,"sanityblue8.png",1,"red","600.5339999999851"
"380","1",380,4,"Trial","Response",1,132,1000,1,1,"blue143.png",0,"red","1000.9610000001267"
"381","1",381,4,"Trial","Response",0,192,300,1,0,"red116.png",0,"red","300.31199999991804"
"382","1",382,4,"Trial","Response",0,337,300,1,0,"red162.png",0,"red","300.4660000000149"
"383","1",383,4,"Trial","Response",0,374,100,1,0,"red77.png",0,"red","100.07799999997951"
"384","1",384,4,"Trial","Response",0,369,100,1,0,"red152.png",0,"red","99.93100000009872"
"385","1",385,4,"Trial","Response",0,208,750,1,0,"red22.png",0,"red","750.7539999999572"
"386","1",386,4,"Trial","Response",1,56,750,0,0,"red103.png",0,"red","750.8209999999963"
"387","1",387,4,"Trial","Response",0,199,500,1,0,"red4.png",0,"red","500.23200000007637"
"388","1",388,4,"Trial","Response",1,232,500,1,1,"blue61.png",0,"red","500.7039999999106"
"389","1",389,4,"Trial","Response",1,228,3000,1,1,"blue5.png",0,"red","3003.40699999989"
"390","1",390,4,"Trial","Response",1,370,100,1,1,"blue142.png",0,"red","100.08400000003166"
"391","1",391,4,"Trial","Response",0,827,100,1,0,"red101.png",0,"red","100.22100000013597"
"392","1",392,4,"Trial","Response",0,438,100,1,0,"red17.png",0,"red","100.11000000010245"
"393","1",393,4,"Trial","Response",0,472,1000,1,0,"red118.png",0,"red","1000.8660000001546"
"394","1",394,4,"Trial","Response",1,396,3000,1,1,"blue151.png",0,"red","3003.0840000000317"
"395","1",395,4,"Trial","Response",0,528,100,1,0,"red198.png",0,"red","100.1480000000447"
"396","1",396,4,"Trial","Response",0,296,3000,1,0,"red169.png",0,"red","3002.988999999827"
"397","1",397,4,"Trial","Response",0,595,300,0,1,"blue123.png",0,"red","300.35899999993853"
"398","1",398,4,"Trial","Response",0,254,3000,1,0,"red200.png",0,"red","3002.973999999929"
"399","1",399,4,"Trial","Response",1,468,300,1,1,"blue52.png",0,"red","299.7600000000093"
"400","1",400,4,"Trial","Response",1,723,1000,1,1,"blue64.png",0,"red","1001.0799999998417"
"401","2",1,1,"Trial","Response",1,548,300,1,1,"blue90.png",0,"blue","298.0780000000086"
"402","2",2,1,"Trial","Response",0,1057,3000,1,0,"red102.png",0,"blue","2997.6999999999825"
"403","2",3,1,"Trial","Response",1,392,1000,0,0,"red69.png",0,"blue","993.7400000000198"
"404","2",4,1,"Trial","Response",1,432,3000,0,0,"red162.png",0,"blue","2997.6639999999898"
"405","2",5,1,"Trial","Response",1,439,750,1,1,"blue15.png",0,"blue","745.2779999999912"
"406","2",6,1,"Trial","Response",1,465,600,1,1,"sanityblue20.png",1,"blue","596.2319999999891"
"407","2",7,1,"Trial","Response",1,464,3000,1,1,"blue37.png",0,"blue","2997.6659999999974"
"408","2",8,1,"Trial","Response",1,366,1000,1,1,"blue188.png",0,"blue","993.6509999999835"
"409","2",9,1,"Trial","Response",1,941,100,1,1,"blue25.png",0,"blue","99.34200000000419"
"410","2",10,1,"Trial","Response",0,473,3000,1,0,"red168.png",0,"blue","2997.728000000003"
"411","2",11,1,"Trial","Response",0,905,500,1,0,"red133.png",0,"blue","496.8859999999986"
"412","2",12,1,"Trial","Response",1,400,1000,1,1,"blue187.png",0,"blue","993.756000000023"
"413","2",13,1,"Trial","Response",1,892,100,1,1,"blue3.png",0,"blue","99.37200000000303"
"414","2",14,1,"Trial","Response",1,441,750,1,1,"blue63.png",0,"blue","745.2820000000065"
"415","2",15,1,"Trial","Response",0,444,750,0,1,"blue35.png",0,"blue","745.2920000000158"
"416","2",16,1,"Trial","Response",0,496,100,1,0,"red47.png",0,"blue","99.38099999999395"
"417","2",17,1,"Trial","Response",1,419,1000,1,1,"blue67.png",0,"blue","993.7000000000116"
"418","2",18,1,"Trial","Response",0,404,600,1,0,"sanityred19.png",1,"blue","596.164999999979"
"419","2",19,1,"Trial","Response",0,378,3000,1,0,"red7.png",0,"blue","2997.6450000000186"
"420","2",20,1,"Trial","Response",0,492,100,0,1,"blue139.png",0,"blue","99.35399999999208"
"421","2",21,1,"Trial","Response",1,410,100,0,0,"red43.png",0,"blue","99.38499999998021"
"422","2",22,1,"Trial","Response",1,388,600,1,1,"sanityblue6.png",1,"blue","596.2150000000256"
"423","2",23,1,"Trial","Response",1,431,1000,0,0,"red189.png",0,"blue","993.7079999999842"
"424","2",24,1,"Trial","Response",0,450,750,1,0,"red174.png",0,"blue","745.2610000000277"
"425","2",25,1,"Trial","Response",0,337,1000,1,0,"red117.png",0,"blue","993.707000000024"
"426","2",26,1,"Trial","Response",1,382,300,1,1,"blue166.png",0,"blue","298.11699999999837"
"427","2",27,1,"Trial","Response",1,446,3000,1,1,"blue124.png",0,"blue","2997.581999999995"
"428","2",28,1,"Trial","Response",0,447,500,1,0,"red39.png",0,"blue","496.85899999999674"
"429","2",29,1,"Trial","Response",1,427,500,1,1,"blue34.png",0,"blue","496.82300000000396"
"430","2",30,1,"Trial","Response",0,466,3000,1,0,"red165.png",0,"blue","2997.697999999975"
"431","2",31,1,"Trial","Response",0,2004,1000,0,0,"red25.png",0,"blue","993.6889999999839"
"432","2",32,1,"Trial","Response",1,326,1000,1,1,"blue100.png",0,"blue","993.6939999999886"
"433","2",33,1,"Trial","Response",1,522,100,1,1,"blue191.png",0,"blue","99.44599999999627"
"434","2",34,1,"Trial","Response",1,328,3000,1,1,"blue92.png",0,"blue","2997.667000000016"
"435","2",35,1,"Trial","Response",1,311,600,1,1,"sanityblue13.png",1,"blue","596.2229999999981"
"436","2",36,1,"Trial","Response",1,317,300,1,1,"blue72.png",0,"blue","298.06200000000536"
"437","2",37,1,"Trial","Response",0,333,500,1,0,"red5.png",0,"blue","496.8650000000198"
"438","2",38,1,"Trial","Response",1,398,100,1,1,"blue179.png",0,"blue","99.38400000002002"
"439","2",39,1,"Trial","Response",0,386,750,1,0,"red58.png",0,"blue","745.2710000000079"
"440","2",40,1,"Trial","Response",1,390,1000,1,1,"blue171.png",0,"blue","993.7119999999995"
"441","2",41,1,"Trial","Response",1,417,750,1,1,"blue101.png",0,"blue","745.2989999999991"
"442","2",42,1,"Trial","Response",1,348,500,1,1,"blue73.png",0,"blue","496.820000000007"
"443","2",43,1,"Trial","Response",0,333,300,0,1,"blue1.png",0,"blue","298.0920000000042"
"444","2",44,1,"Trial","Response",1,410,500,1,1,"blue21.png",0,"blue","496.84700000000885"
"445","2",45,1,"Trial","Response",1,529,100,1,1,"blue19.png",0,"blue","99.37699999997858"
"446","2",46,1,"Trial","Response",1,390,750,0,0,"red48.png",0,"blue","745.2609999999986"
"447","2",47,1,"Trial","Response",1,363,500,1,1,"blue167.png",0,"blue","496.77700000000186"
"448","2",48,1,"Trial","Response",1,404,600,1,1,"sanityblue18.png",1,"blue","596.2569999999832"
"449","2",49,1,"Trial","Response",1,459,750,1,1,"blue105.png",0,"blue","745.26800000004"
"450","2",50,1,"Trial","Response",1,397,500,1,1,"blue22.png",0,"blue","496.8620000000228"
"451","2",51,1,"Trial","Response",1,388,100,0,0,"red172.png",0,"blue","99.37299999996321"
"452","2",52,1,"Trial","Response",1,384,100,0,0,"red93.png",0,"blue","99.36499999999069"
"453","2",53,1,"Trial","Response",1,307,3000,1,1,"blue98.png",0,"blue","2997.5999999999767"
"454","2",54,1,"Trial","Response",0,330,500,1,0,"red106.png",0,"blue","496.86900000000605"
"455","2",55,1,"Trial","Response",0,388,1000,1,0,"red21.png",0,"blue","993.6410000000033"
"456","2",56,1,"Trial","Response",0,371,300,1,0,"red195.png",0,"blue","298.1350000000093"
"457","2",57,1,"Trial","Response",1,343,300,1,1,"blue94.png",0,"blue","298.1389999999665"
"458","2",58,1,"Trial","Response",0,495,300,1,0,"red3.png",0,"blue","298.1479999999865"
"459","2",59,1,"Trial","Response",1,577,500,1,1,"blue4.png",0,"blue","496.82500000001164"
"460","2",60,1,"Trial","Response",0,376,750,0,1,"blue133.png",0,"blue","745.23199999996"
"461","2",61,1,"Trial","Response",1,405,100,1,1,"blue16.png",0,"blue","99.38000000000466"
"462","2",62,1,"Trial","Response",1,354,3000,1,1,"blue147.png",0,"blue","2997.6630000000005"
"463","2",63,1,"Trial","Response",1,368,600,1,1,"sanityblue3.png",1,"blue","596.2300000000396"
"464","2",64,1,"Trial","Response",1,487,1000,1,1,"blue119.png",0,"blue","993.6689999999944"
"465","2",65,1,"Trial","Response",0,314,600,1,0,"sanityred20.png",1,"blue","596.2079999999842"
"466","2",66,1,"Trial","Response",1,358,300,0,0,"red70.png",0,"blue","298.12099999998463"
"467","2",67,1,"Trial","Response",1,374,3000,1,1,"blue174.png",0,"blue","2997.6509999999544"
"468","2",68,1,"Trial","Response",1,658,100,0,0,"red57.png",0,"blue","99.37900000001537"
"469","2",69,1,"Trial","Response",0,513,750,1,0,"red179.png",0,"blue","745.26800000004"
"470","2",70,1,"Trial","Response",1,329,300,0,0,"red159.png",0,"blue","298.1719999999623"
"471","2",71,1,"Trial","Response",1,362,3000,0,0,"red108.png",0,"blue","2997.6300000000047"
"472","2",72,1,"Trial","Response",1,449,100,0,0,"red142.png",0,"blue","99.399000000034"
"473","2",73,1,"Trial","Response",1,358,1000,1,1,"blue83.png",0,"blue","993.7170000000042"
"474","2",74,1,"Trial","Response",1,401,100,1,1,"blue200.png",0,"blue","99.38199999998324"
"475","2",75,1,"Trial","Response",0,2004,500,0,0,"red40.png",0,"blue","496.8510000000242"
"476","2",76,1,"Trial","Response",0,447,300,1,0,"red178.png",0,"blue","298.09499999997206"
"477","2",77,1,"Trial","Response",1,404,500,0,0,"red190.png",0,"blue","496.85700000001816"
"478","2",78,1,"Trial","Response",1,464,500,1,1,"blue120.png",0,"blue","496.8159999999916"
"479","2",79,1,"Trial","Response",1,430,3000,1,1,"blue87.png",0,"blue","2997.6140000000014"
"480","2",80,1,"Trial","Response",0,596,100,0,1,"blue168.png",0,"blue","99.45400000002701"
"481","2",81,1,"Trial","Response",1,421,300,1,1,"blue84.png",0,"blue","298.1170000000275"
"482","2",82,1,"Trial","Response",0,472,3000,0,1,"blue60.png",0,"blue","2997.6389999999665"
"483","2",83,1,"Trial","Response",0,907,1000,0,1,"blue111.png",0,"blue","993.7430000000168"
"484","2",84,1,"Trial","Response",0,379,600,1,0,"sanityred11.png",1,"blue","596.2759999999544"
"485","2",85,1,"Trial","Response",1,421,600,1,1,"sanityblue4.png",1,"blue","596.2380000000121"
"486","2",86,1,"Trial","Response",1,500,300,0,0,"red6.png",0,"blue","298.1379999999772"
"487","2",87,1,"Trial","Response",0,713,1000,1,0,"red188.png",0,"blue","993.6939999999595"
"488","2",88,1,"Trial","Response",1,414,300,1,1,"blue144.png",0,"blue","298.12099999998463"
"489","2",89,1,"Trial","Response",1,445,1000,1,1,"blue112.png",0,"blue","993.6969999999856"
"490","2",90,1,"Trial","Response",1,402,300,1,1,"blue183.png",0,"blue","298.0930000000517"
"491","2",91,1,"Trial","Response",1,397,300,1,1,"blue28.png",0,"blue","298.06400000001304"
"492","2",92,1,"Trial","Response",0,413,750,1,0,"red22.png",0,"blue","745.1940000000177"
"493","2",93,1,"Trial","Response",1,419,500,1,1,"blue17.png",0,"blue","496.8539999999921"
"494","2",94,1,"Trial","Response",1,358,750,1,1,"blue51.png",0,"blue","745.3360000000102"
"495","2",95,1,"Trial","Response",1,413,750,1,1,"blue50.png",0,"blue","745.2839999999851"
"496","2",96,1,"Trial","Response",0,429,500,0,1,"blue88.png",0,"blue","496.8099999999977"
"497","2",97,1,"Trial","Response",1,382,3000,1,1,"blue161.png",0,"blue","2997.5779999999795"
"498","2",98,1,"Trial","Response",0,803,750,0,1,"blue199.png",0,"blue","745.3260000000009"
"499","2",99,1,"Trial","Response",0,388,600,1,0,"sanityred8.png",1,"blue","596.2579999999725"
"500","2",100,1,"Trial","Response",0,418,750,1,0,"red134.png",0,"blue","745.3530000000028"
"501","2",101,2,"Trial","Response",0,426,750,1,0,"red117.png",0,"red","745.3010000000941"
"502","2",102,2,"Trial","Response",1,446,500,0,0,"red135.png",0,"red","496.84799999999814"
"503","2",103,2,"Trial","Response",1,655,3000,1,1,"blue172.png",0,"red","2997.6579999999376"
"504","2",104,2,"Trial","Response",0,318,1000,1,0,"red52.png",0,"red","993.6729999999516"
"505","2",105,2,"Trial","Response",0,410,1000,1,0,"red151.png",0,"red","993.7069999999367"
"506","2",106,2,"Trial","Response",0,559,100,0,1,"blue176.png",0,"red","99.42700000002515"
"507","2",107,2,"Trial","Response",0,355,300,1,0,"red19.png",0,"red","298.0889999999199"
"508","2",108,2,"Trial","Response",0,87,500,0,1,"blue81.png",0,"red","496.8220000000438"
"509","2",109,2,"Trial","Response",0,305,1000,0,1,"blue126.png",0,"red","993.7199999999721"
"510","2",110,2,"Trial","Response",0,341,1000,1,0,"red30.png",0,"red","993.7179999999935"
"511","2",111,2,"Trial","Response",0,294,100,0,1,"blue146.png",0,"red","99.37199999997392"
"512","2",112,2,"Trial","Response",0,379,750,1,0,"red111.png",0,"red","745.3489999999292"
"513","2",113,2,"Trial","Response",0,358,500,0,1,"blue175.png",0,"red","496.8630000000121"
"514","2",114,2,"Trial","Response",0,315,300,1,0,"red58.png",0,"red","298.14000000001397"
"515","2",115,2,"Trial","Response",0,35,1000,1,0,"red175.png",0,"red","993.6989999999059"
"516","2",116,2,"Trial","Response",1,377,1000,0,0,"red68.png",0,"red","993.7290000000503"
"517","2",117,2,"Trial","Response",0,162,1000,1,0,"red94.png",0,"red","993.6360000000568"
"518","2",118,2,"Trial","Response",0,474,750,0,1,"blue110.png",0,"red","745.283000000054"
"519","2",119,2,"Trial","Response",0,48,3000,1,0,"red165.png",0,"red","2997.7039999999106"
"520","2",120,2,"Trial","Response",0,498,100,1,0,"red170.png",0,"red","99.37199999997392"
"521","2",121,2,"Trial","Response",0,430,750,0,1,"blue9.png",0,"red","745.3240000000224"
"522","2",122,2,"Trial","Response",0,358,750,0,1,"blue20.png",0,"red","745.3000000000466"
"523","2",123,2,"Trial","Response",1,409,600,1,1,"sanityblue5.png",1,"red","596.2269999999553"
"524","2",124,2,"Trial","Response",0,344,3000,1,0,"red79.png",0,"red","2997.587999999989"
"525","2",125,2,"Trial","Response",0,324,300,1,0,"red183.png",0,"red","298.07600000000093"
"526","2",126,2,"Trial","Response",0,352,100,1,0,"red21.png",0,"red","99.37099999992643"
"527","2",127,2,"Trial","Response",0,416,1000,0,1,"blue140.png",0,"red","993.7269999999553"
"528","2",128,2,"Trial","Response",0,334,600,1,0,"sanityred5.png",1,"red","596.2750000000233"
"529","2",129,2,"Trial","Response",1,955,750,0,0,"red39.png",0,"red","745.2929999999469"
"530","2",130,2,"Trial","Response",0,454,300,0,1,"blue19.png",0,"red","298.0910000000149"
"531","2",131,2,"Trial","Response",0,556,100,1,0,"red179.png",0,"red","99.40399999998044"
"532","2",132,2,"Trial","Response",0,960,600,1,0,"sanityred12.png",1,"red","596.222000000067"
"533","2",133,2,"Trial","Response",1,418,300,1,1,"blue8.png",0,"red","298.0910000000149"
"534","2",134,2,"Trial","Response",1,445,300,1,1,"blue12.png",0,"red","298.09699999995064"
"535","2",135,2,"Trial","Response",1,393,300,0,0,"red62.png",0,"red","298.10599999991246"
"536","2",136,2,"Trial","Response",0,648,100,1,0,"red138.png",0,"red","99.36800000001676"
"537","2",137,2,"Trial","Response",0,462,100,0,1,"blue51.png",0,"red","99.3519999999553"
"538","2",138,2,"Trial","Response",1,194,100,1,1,"blue188.png",0,"red","99.35999999998603"
"539","2",139,2,"Trial","Response",0,163,100,1,0,"red114.png",0,"red","99.33299999998417"
"540","2",140,2,"Trial","Response",1,367,500,1,1,"blue25.png",0,"red","496.84799999999814"
"541","2",141,2,"Trial","Response",1,344,500,0,0,"red153.png",0,"red","496.84499999997206"
"542","2",142,2,"Trial","Response",0,429,3000,1,0,"red3.png",0,"red","2997.658999999985"
"543","2",143,2,"Trial","Response",0,462,750,1,0,"red25.png",0,"red","745.2559999999357"
"544","2",144,2,"Trial","Response",0,355,1000,1,0,"red104.png",0,"red","993.7020000000484"
"545","2",145,2,"Trial","Response",1,1447,300,0,0,"red193.png",0,"red","298.0780000000959"
"546","2",146,2,"Trial","Response",1,81,600,1,1,"sanityblue19.png",1,"red","596.2410000000382"
"547","2",147,2,"Trial","Response",0,208,3000,0,1,"blue111.png",0,"red","2997.64300000004"
"548","2",148,2,"Trial","Response",1,331,750,0,0,"red162.png",0,"red","745.2079999999842"
"549","2",149,2,"Trial","Response",0,347,3000,1,0,"red137.png",0,"red","2997.652000000002"
"550","2",150,2,"Trial","Response",1,650,100,0,0,"red5.png",0,"red","99.37100000004284"
"551","2",151,2,"Trial","Response",1,463,300,0,0,"red134.png",0,"red","298.1360000000568"
"552","2",152,2,"Trial","Response",0,601,600,1,0,"sanityred3.png",1,"red","596.2239999999292"
"553","2",153,2,"Trial","Response",1,439,1000,1,1,"blue67.png",0,"red","993.7129999999888"
"554","2",154,2,"Trial","Response",1,437,1000,0,0,"red1.png",0,"red","993.6739999999991"
"555","2",155,2,"Trial","Response",1,506,500,1,1,"blue187.png",0,"red","496.86999999999534"
"556","2",156,2,"Trial","Response",0,308,300,0,1,"blue42.png",0,"red","298.11699999996927"
"557","2",157,2,"Trial","Response",1,344,3000,0,0,"red6.png",0,"red","2997.6639999999898"
"558","2",158,2,"Trial","Response",1,386,3000,1,1,"blue21.png",0,"red","2997.658000000054"
"559","2",159,2,"Trial","Response",1,276,500,0,0,"red192.png",0,"red","496.8649999999907"
"560","2",160,2,"Trial","Response",1,378,750,0,0,"red199.png",0,"red","745.2760000000708"
"561","2",161,2,"Trial","Response",0,374,300,1,0,"red56.png",0,"red","298.0789999999106"
"562","2",162,2,"Trial","Response",1,347,750,0,0,"red128.png",0,"red","745.25"
"563","2",163,2,"Trial","Response",1,329,600,1,1,"sanityblue2.png",1,"red","596.1809999999823"
"564","2",164,2,"Trial","Response",1,357,300,1,1,"blue112.png",0,"red","298.11599999992177"
"565","2",165,2,"Trial","Response",1,374,100,0,0,"red133.png",0,"red","99.36200000008103"
"566","2",166,2,"Trial","Response",1,300,1000,1,1,"blue158.png",0,"red","993.6879999999655"
"567","2",167,2,"Trial","Response",1,316,500,1,1,"blue194.png",0,"red","496.8300000000745"
"568","2",168,2,"Trial","Response",0,346,500,1,0,"red115.png",0,"red","496.8320000000531"
"569","2",169,2,"Trial","Response",0,403,750,0,1,"blue115.png",0,"red","745.2739999999758"
"570","2",170,2,"Trial","Response",0,316,600,1,0,"sanityred16.png",1,"red","596.2049999999581"
"571","2",171,2,"Trial","Response",1,343,1000,1,1,"blue109.png",0,"red","993.6900000000605"
"572","2",172,2,"Trial","Response",1,343,3000,1,1,"blue33.png",0,"red","2997.6720000000205"
"573","2",173,2,"Trial","Response",0,365,600,1,0,"sanityred1.png",1,"red","596.2530000000261"
"574","2",174,2,"Trial","Response",1,367,500,0,0,"red66.png",0,"red","496.844000000041"
"575","2",175,2,"Trial","Response",0,708,500,1,0,"red118.png",0,"red","496.862000000081"
"576","2",176,2,"Trial","Response",1,364,300,0,0,"red73.png",0,"red","298.1369999999879"
"577","2",177,2,"Trial","Response",0,326,300,0,1,"blue69.png",0,"red","298.1219999999739"
"578","2",178,2,"Trial","Response",1,168,500,0,0,"red123.png",0,"red","496.7719999999972"
"579","2",179,2,"Trial","Response",1,346,3000,0,0,"red54.png",0,"red","2997.6319999999832"
"580","2",180,2,"Trial","Response",1,526,500,0,0,"red81.png",0,"red","496.83600000001024"
"581","2",181,2,"Trial","Response",0,453,750,0,1,"blue144.png",0,"red","745.2709999999497"
"582","2",182,2,"Trial","Response",0,2004,750,0,0,"red53.png",0,"red","745.2600000000093"
"583","2",183,2,"Trial","Response",0,357,750,0,1,"blue189.png",0,"red","745.2869999998948"
"584","2",184,2,"Trial","Response",0,812,100,1,0,"red106.png",0,"red","99.36999999999534"
"585","2",185,2,"Trial","Response",1,1,600,1,1,"sanityblue16.png",1,"red","596.2439999999478"
"586","2",186,2,"Trial","Response",0,116,600,1,0,"sanityred15.png",1,"red","596.2929999999469"
"587","2",187,2,"Trial","Response",1,218,100,0,0,"red78.png",0,"red","99.38899999996647"
"588","2",188,2,"Trial","Response",1,261,1000,0,0,"red144.png",0,"red","993.6799999999348"
"589","2",189,2,"Trial","Response",0,168,3000,1,0,"red197.png",0,"red","2997.6790000000037"
"590","2",190,2,"Trial","Response",1,443,3000,1,1,"blue72.png",0,"red","2997.67499999993"
"591","2",191,2,"Trial","Response",0,219,3000,1,0,"red16.png",0,"red","2997.701999999932"
"592","2",192,2,"Trial","Response",1,562,300,0,0,"red41.png",0,"red","298.1380000000354"
"593","2",193,2,"Trial","Response",1,263,500,1,1,"blue91.png",0,"red","496.9010000000708"
"594","2",194,2,"Trial","Response",1,502,100,1,1,"blue120.png",0,"red","99.33400000003166"
"595","2",195,2,"Trial","Response",1,446,100,1,1,"blue75.png",0,"red","99.35999999998603"
"596","2",196,2,"Trial","Response",0,393,500,1,0,"red180.png",0,"red","496.7700000000186"
"597","2",197,2,"Trial","Response",1,564,1000,1,1,"blue107.png",0,"red","993.7159999998985"
"598","2",198,2,"Trial","Response",0,246,3000,1,0,"red95.png",0,"red","2997.6560000000754"
"599","2",199,2,"Trial","Response",0,285,750,1,0,"red22.png",0,"red","745.2689999999711"
"600","2",200,2,"Trial","Response",1,369,3000,1,1,"blue154.png",0,"red","2997.680000000051"
"601","2",201,3,"Trial","Response",1,306,750,0,0,"red114.png",0,"blue","745.1959999999963"
"602","2",202,3,"Trial","Response",1,49,300,1,1,"blue133.png",0,"blue","298.10900000017136"
"603","2",203,3,"Trial","Response",1,118,100,1,1,"blue36.png",0,"blue","99.38500000000931"
"604","2",204,3,"Trial","Response",1,150,3000,1,1,"blue136.png",0,"blue","2997.655999999959"
"605","2",205,3,"Trial","Response",1,173,100,1,1,"blue145.png",0,"blue","99.37400000006892"
"606","2",206,3,"Trial","Response",1,140,100,0,0,"red28.png",0,"blue","99.36499999999069"
"607","2",207,3,"Trial","Response",0,557,500,1,0,"red105.png",0,"blue","496.86599999992177"
"608","2",208,3,"Trial","Response",1,371,3000,1,1,"blue154.png",0,"blue","2997.6710000000894"
"609","2",209,3,"Trial","Response",0,371,600,1,0,"sanityred16.png",1,"blue","596.2529999997932"
"610","2",210,3,"Trial","Response",1,337,300,1,1,"blue168.png",0,"blue","298.10599999991246"
"611","2",211,3,"Trial","Response",0,579,500,1,0,"red170.png",0,"blue","496.8519999999553"
"612","2",212,3,"Trial","Response",1,190,100,0,0,"red173.png",0,"blue","99.33799999998882"
"613","2",213,3,"Trial","Response",1,373,600,1,1,"sanityblue20.png",1,"blue","596.1929999999702"
"614","2",214,3,"Trial","Response",0,390,750,1,0,"red129.png",0,"blue","745.2430000000168"
"615","2",215,3,"Trial","Response",1,168,500,0,0,"red57.png",0,"blue","496.83599999989383"
"616","2",216,3,"Trial","Response",1,306,300,1,1,"blue121.png",0,"blue","298.094000000041"
"617","2",217,3,"Trial","Response",1,383,600,1,1,"sanityblue10.png",1,"blue","596.1949999998324"
"618","2",218,3,"Trial","Response",1,343,3000,1,1,"blue34.png",0,"blue","2997.6699999999255"
"619","2",219,3,"Trial","Response",1,304,1000,1,1,"blue65.png",0,"blue","993.7010000001173"
"620","2",220,3,"Trial","Response",1,339,750,1,1,"blue195.png",0,"blue","745.2930000000633"
"621","2",221,3,"Trial","Response",0,329,300,1,0,"red186.png",0,"blue","298.1149999999907"
"622","2",222,3,"Trial","Response",0,360,1000,1,0,"red178.png",0,"blue","993.6780000000726"
"623","2",223,3,"Trial","Response",0,91,750,1,0,"red196.png",0,"blue","745.3199999998324"
"624","2",224,3,"Trial","Response",1,27,500,1,1,"blue22.png",0,"blue","496.84599999990314"
"625","2",225,3,"Trial","Response",1,793,100,0,0,"red160.png",0,"blue","99.38800000003539"
"626","2",226,3,"Trial","Response",0,330,600,1,0,"sanityred8.png",1,"blue","596.2069999999367"
"627","2",227,3,"Trial","Response",1,443,100,1,1,"blue25.png",0,"blue","99.39199999999255"
"628","2",228,3,"Trial","Response",1,452,500,1,1,"blue187.png",0,"blue","496.75600000005215"
"629","2",229,3,"Trial","Response",1,454,500,1,1,"blue61.png",0,"blue","496.8950000000186"
"630","2",230,3,"Trial","Response",1,449,100,0,0,"red168.png",0,"blue","99.38800000003539"
"631","2",231,3,"Trial","Response",1,393,750,1,1,"blue74.png",0,"blue","745.2600000000093"
"632","2",232,3,"Trial","Response",0,332,3000,1,0,"red103.png",0,"blue","2997.6720000000205"
"633","2",233,3,"Trial","Response",0,388,500,1,0,"red132.png",0,"blue","496.8969999998808"
"634","2",234,3,"Trial","Response",0,300,500,0,1,"blue58.png",0,"blue","496.846000000136"
"635","2",235,3,"Trial","Response",0,389,3000,1,0,"red112.png",0,"blue","2997.619999999879"
"636","2",236,3,"Trial","Response",1,175,1000,1,1,"blue103.png",0,"blue","993.6719999997877"
"637","2",237,3,"Trial","Response",1,264,500,1,1,"blue156.png",0,"blue","496.84799999999814"
"638","2",238,3,"Trial","Response",0,409,1000,0,1,"blue94.png",0,"blue","993.7160000000149"
"639","2",239,3,"Trial","Response",0,353,600,1,0,"sanityred18.png",1,"blue","596.2359999998007"
"640","2",240,3,"Trial","Response",0,524,100,1,0,"red35.png",0,"blue","99.37599999993108"
"641","2",241,3,"Trial","Response",0,215,3000,1,0,"red6.png",0,"blue","2997.689000000013"
"642","2",242,3,"Trial","Response",0,318,750,1,0,"red184.png",0,"blue","745.2890000001062"
"643","2",243,3,"Trial","Response",1,286,750,1,1,"blue167.png",0,"blue","745.2750000001397"
"644","2",244,3,"Trial","Response",1,374,1000,1,1,"blue8.png",0,"blue","993.6710000000894"
"645","2",245,3,"Trial","Response",1,471,600,1,1,"sanityblue9.png",1,"blue","596.2469999999739"
"646","2",246,3,"Trial","Response",0,312,300,1,0,"red120.png",0,"blue","298.1620000000112"
"647","2",247,3,"Trial","Response",0,235,3000,0,1,"blue15.png",0,"blue","2997.6639999998733"
"648","2",248,3,"Trial","Response",1,462,100,1,1,"blue86.png",0,"blue","99.34799999999814"
"649","2",249,3,"Trial","Response",1,398,300,0,0,"red161.png",0,"blue","298.1160000001546"
"650","2",250,3,"Trial","Response",0,342,1000,0,1,"blue37.png",0,"blue","993.7090000000317"
"651","2",251,3,"Trial","Response",0,313,1000,0,1,"blue143.png",0,"blue","993.7489999998361"
"652","2",252,3,"Trial","Response",1,335,3000,1,1,"blue51.png",0,"blue","2997.649999999907"
"653","2",253,3,"Trial","Response",1,375,100,1,1,"blue146.png",0,"blue","99.33499999996275"
"654","2",254,3,"Trial","Response",1,391,750,1,1,"blue111.png",0,"blue","745.2760000000708"
"655","2",255,3,"Trial","Response",1,351,750,1,1,"blue158.png",0,"blue","745.2709999999497"
"656","2",256,3,"Trial","Response",1,329,300,1,1,"blue12.png",0,"blue","298.09499999997206"
"657","2",257,3,"Trial","Response",0,347,300,0,1,"blue104.png",0,"blue","298.1329999999143"
"658","2",258,3,"Trial","Response",1,356,500,1,1,"blue129.png",0,"blue","496.8159999998752"
"659","2",259,3,"Trial","Response",0,342,3000,1,0,"red33.png",0,"blue","2997.5719999999274"
"660","2",260,3,"Trial","Response",1,351,750,1,1,"blue193.png",0,"blue","745.2120000000577"
"661","2",261,3,"Trial","Response",0,405,300,1,0,"red195.png",0,"blue","298.094000000041"
"662","2",262,3,"Trial","Response",1,420,500,1,1,"blue118.png",0,"blue","496.8950000000186"
"663","2",263,3,"Trial","Response",0,555,100,1,0,"red15.png",0,"blue","99.39999999990687"
"664","2",264,3,"Trial","Response",1,221,500,1,1,"blue50.png",0,"blue","496.8450000002049"
"665","2",265,3,"Trial","Response",0,300,1000,1,0,"red17.png",0,"blue","993.7129999999888"
"666","2",266,3,"Trial","Response",0,329,750,1,0,"red56.png",0,"blue","745.2029999999795"
"667","2",267,3,"Trial","Response",1,450,100,1,1,"blue84.png",0,"blue","99.37199999997392"
"668","2",268,3,"Trial","Response",0,481,300,1,0,"red68.png",0,"blue","298.12899999995716"
"669","2",269,3,"Trial","Response",1,394,300,1,1,"blue67.png",0,"blue","298.11899999994785"
"670","2",270,3,"Trial","Response",1,314,3000,1,1,"blue164.png",0,"blue","2997.652000000002"
"671","2",271,3,"Trial","Response",1,226,1000,1,1,"blue91.png",0,"blue","993.7010000001173"
"672","2",272,3,"Trial","Response",1,45,300,0,0,"red31.png",0,"blue","298.10800000000745"
"673","2",273,3,"Trial","Response",0,225,600,1,0,"sanityred12.png",1,"blue","596.214999999851"
"674","2",274,3,"Trial","Response",1,377,300,1,1,"blue20.png",0,"blue","298.091999999946"
"675","2",275,3,"Trial","Response",0,465,100,0,1,"blue47.png",0,"blue","99.32900000014342"
"676","2",276,3,"Trial","Response",1,315,750,1,1,"blue68.png",0,"blue","745.2609999999404"
"677","2",277,3,"Trial","Response",1,316,300,1,1,"blue141.png",0,"blue","298.08499999996275"
"678","2",278,3,"Trial","Response",1,242,3000,1,1,"blue113.png",0,"blue","2997.692000000039"
"679","2",279,3,"Trial","Response",1,754,3000,1,1,"blue33.png",0,"blue","2997.6699999999255"
"680","2",280,3,"Trial","Response",1,196,1000,1,1,"blue190.png",0,"blue","993.7829999998212"
"681","2",281,3,"Trial","Response",1,250,1000,0,0,"red135.png",0,"blue","993.7460000000428"
"682","2",282,3,"Trial","Response",0,421,300,0,1,"blue147.png",0,"blue","298.10800000000745"
"683","2",283,3,"Trial","Response",1,417,600,1,1,"sanityblue11.png",1,"blue","596.2020000000484"
"684","2",284,3,"Trial","Response",1,396,3000,0,0,"red77.png",0,"blue","2997.6999999999534"
"685","2",285,3,"Trial","Response",1,434,750,1,1,"blue80.png",0,"blue","745.3310000000056"
"686","2",286,3,"Trial","Response",0,324,1000,1,0,"red108.png",0,"blue","993.6829999999609"
"687","2",287,3,"Trial","Response",1,366,1000,0,0,"red155.png",0,"blue","993.7139999999199"
"688","2",288,3,"Trial","Response",1,342,600,1,1,"sanityblue16.png",1,"blue","596.2229999999981"
"689","2",289,3,"Trial","Response",0,263,3000,1,0,"red113.png",0,"blue","2997.653999999864"
"690","2",290,3,"Trial","Response",0,463,500,1,0,"red42.png",0,"blue","496.89199999999255"
"691","2",291,3,"Trial","Response",0,364,1000,1,0,"red55.png",0,"blue","993.7060000000056"
"692","2",292,3,"Trial","Response",0,369,500,1,0,"red169.png",0,"blue","496.8059999998659"
"693","2",293,3,"Trial","Response",1,381,100,1,1,"blue35.png",0,"blue","99.37100000004284"
"694","2",294,3,"Trial","Response",1,368,600,1,1,"sanityblue13.png",1,"blue","596.2209999999031"
"695","2",295,3,"Trial","Response",0,368,1000,0,1,"blue60.png",0,"blue","993.6700000001583"
"696","2",296,3,"Trial","Response",1,326,750,1,1,"blue198.png",0,"blue","745.2219999998342"
"697","2",297,3,"Trial","Response",0,364,3000,0,1,"blue140.png",0,"blue","2997.65699999989"
"698","2",298,3,"Trial","Response",1,483,500,1,1,"blue88.png",0,"blue","496.8310000000056"
"699","2",299,3,"Trial","Response",1,359,750,0,0,"red163.png",0,"blue","745.283000000054"
"700","2",300,3,"Trial","Response",0,655,100,0,1,"blue7.png",0,"blue","99.34899999992922"
"701","2",301,4,"Trial","Response",0,266,100,1,0,"red195.png",0,"red","99.36199999996461"
"702","2",302,4,"Trial","Response",1,830,100,1,1,"blue150.png",0,"red","99.34699999983422"
"703","2",303,4,"Trial","Response",1,460,750,0,0,"red89.png",0,"red","745.2949999999255"
"704","2",304,4,"Trial","Response",0,711,500,1,0,"red58.png",0,"red","496.7739999999758"
"705","2",305,4,"Trial","Response",1,437,500,1,1,"blue84.png",0,"red","496.9130000001751"
"706","2",306,4,"Trial","Response",1,26,300,0,0,"red120.png",0,"red","298.13999999989755"
"707","2",307,4,"Trial","Response",1,346,100,1,1,"blue32.png",0,"red","99.36300000012852"
"708","2",308,4,"Trial","Response",0,349,750,0,1,"blue76.png",0,"red","745.3260000001173"
"709","2",309,4,"Trial","Response",1,358,100,1,1,"blue160.png",0,"red","99.37599999993108"
"710","2",310,4,"Trial","Response",0,349,1000,1,0,"red136.png",0,"red","993.689000000013"
"711","2",311,4,"Trial","Response",1,350,100,0,0,"red82.png",0,"red","99.34400000004098"
"712","2",312,4,"Trial","Response",0,487,500,0,1,"blue88.png",0,"red","496.8430000001099"
"713","2",313,4,"Trial","Response",1,350,500,0,0,"red105.png",0,"red","496.83700000005774"
"714","2",314,4,"Trial","Response",0,546,300,1,0,"red165.png",0,"red","298.09299999987707"
"715","2",315,4,"Trial","Response",0,396,3000,1,0,"red118.png",0,"red","2997.6730000001844"
"716","2",316,4,"Trial","Response",1,422,100,0,0,"red193.png",0,"red","99.35300000011921"
"717","2",317,4,"Trial","Response",0,475,100,1,0,"red169.png",0,"red","99.39099999982864"
"718","2",318,4,"Trial","Response",0,326,600,1,0,"sanityred14.png",1,"red","596.2260000000242"
"719","2",319,4,"Trial","Response",1,388,100,1,1,"blue115.png",0,"red","99.39899999997579"
"720","2",320,4,"Trial","Response",1,724,1000,0,0,"red182.png",0,"red","993.690000000177"
"721","2",321,4,"Trial","Response",1,266,600,1,1,"sanityblue10.png",1,"red","596.2109999998938"
"722","2",322,4,"Trial","Response",1,817,300,1,1,"blue116.png",0,"red","298.08400000003166"
"723","2",323,4,"Trial","Response",1,468,500,1,1,"blue24.png",0,"red","496.8489999999292"
"724","2",324,4,"Trial","Response",0,180,600,1,0,"sanityred7.png",1,"red","596.2009999998845"
"725","2",325,4,"Trial","Response",0,172,600,1,0,"sanityred6.png",1,"red","596.2379999998957"
"726","2",326,4,"Trial","Response",1,378,300,0,0,"red103.png",0,"red","298.1369999998715"
"727","2",327,4,"Trial","Response",1,97,600,1,1,"sanityblue20.png",1,"red","596.1750000000466"
"728","2",328,4,"Trial","Response",0,341,750,1,0,"red3.png",0,"red","745.2480000001378"
"729","2",329,4,"Trial","Response",0,464,1000,0,1,"blue176.png",0,"red","993.7199999999721"
"730","2",330,4,"Trial","Response",1,96,100,0,0,"red1.png",0,"red","99.37100000004284"
"731","2",331,4,"Trial","Response",0,56,1000,0,1,"blue37.png",0,"red","993.6689999999944"
"732","2",332,4,"Trial","Response",0,167,500,0,1,"blue20.png",0,"red","496.783000000054"
"733","2",333,4,"Trial","Response",1,67,1000,1,1,"blue19.png",0,"red","993.6980000000913"
"734","2",334,4,"Trial","Response",1,300,750,0,0,"red53.png",0,"red","745.2359999998007"
"735","2",335,4,"Trial","Response",0,516,3000,0,1,"blue42.png",0,"red","2997.6380000000354"
"736","2",336,4,"Trial","Response",0,160,3000,0,1,"blue135.png",0,"red","2997.6410000000615"
"737","2",337,4,"Trial","Response",0,1132,100,1,0,"red199.png",0,"red","99.3300000000745"
"738","2",338,4,"Trial","Response",0,111,300,0,1,"blue50.png",0,"red","298.15299999993294"
"739","2",339,4,"Trial","Response",0,678,3000,1,0,"red9.png",0,"red","2997.7390000000596"
"740","2",340,4,"Trial","Response",0,372,750,0,1,"blue81.png",0,"red","745.3000000000466"
"741","2",341,4,"Trial","Response",0,159,300,0,1,"blue170.png",0,"red","298.15400000009686"
"742","2",342,4,"Trial","Response",1,52,600,1,1,"sanityblue16.png",1,"red","596.2770000000019"
"743","2",343,4,"Trial","Response",1,97,3000,0,0,"red189.png",0,"red","2997.7009999998845"
"744","2",344,4,"Trial","Response",0,2004,3000,0,1,"blue79.png",0,"red","2997.6959999999963"
"745","2",345,4,"Trial","Response",0,191,3000,0,1,"blue130.png",0,"red","2997.658000000054"
"746","2",346,4,"Trial","Response",0,135,600,1,0,"sanityred18.png",1,"red","596.2250000000931"
"747","2",347,4,"Trial","Response",1,19,1000,0,0,"red75.png",0,"red","993.6959999999963"
"748","2",348,4,"Trial","Response",1,185,3000,1,1,"blue106.png",0,"red","2997.662000000011"
"749","2",349,4,"Trial","Response",1,1650,3000,0,0,"red11.png",0,"red","2997.7079999998678"
"750","2",350,4,"Trial","Response",1,273,750,1,1,"blue86.png",0,"red","745.2920000001322"
"751","2",351,4,"Trial","Response",0,272,3000,1,0,"red109.png",0,"red","2997.6119999999646"
"752","2",352,4,"Trial","Response",0,1635,1000,1,0,"red71.png",0,"red","993.7269999999553"
"753","2",353,4,"Trial","Response",1,1773,500,0,0,"red145.png",0,"red","496.844000000041"
"754","2",354,4,"Trial","Response",1,1207,500,0,0,"red146.png",0,"red","496.8610000000335"
"755","2",355,4,"Trial","Response",0,276,100,1,0,"red29.png",0,"red","99.30300000007264"
"756","2",356,4,"Trial","Response",1,114,3000,0,0,"red99.png",0,"red","2997.652000000002"
"757","2",357,4,"Trial","Response",0,214,750,1,0,"red126.png",0,"red","745.214999999851"
"758","2",358,4,"Trial","Response",1,74,300,1,1,"blue13.png",0,"red","298.0779999999795"
"759","2",359,4,"Trial","Response",1,99,750,1,1,"blue158.png",0,"red","745.2750000001397"
"760","2",360,4,"Trial","Response",1,60,750,0,0,"red132.png",0,"red","745.2760000000708"
"761","2",361,4,"Trial","Response",0,2004,750,0,0,"red38.png",0,"red","745.2669999999925"
"762","2",362,4,"Trial","Response",1,293,500,1,1,"blue146.png",0,"red","496.9199999999255"
"763","2",363,4,"Trial","Response",0,204,500,1,0,"red149.png",0,"red","496.83199999993667"
"764","2",364,4,"Trial","Response",1,355,100,0,0,"red127.png",0,"red","99.3640000000596"
"765","2",365,4,"Trial","Response",0,356,300,0,1,"blue168.png",0,"red","298.1369999998715"
"766","2",366,4,"Trial","Response",0,357,750,1,0,"red162.png",0,"red","745.3170000000391"
"767","2",367,4,"Trial","Response",1,717,300,0,0,"red178.png",0,"red","298.094000000041"
"768","2",368,4,"Trial","Response",1,916,100,1,1,"blue57.png",0,"red","99.36800000001676"
"769","2",369,4,"Trial","Response",0,59,300,0,1,"blue11.png",0,"red","298.14299999992363"
"770","2",370,4,"Trial","Response",0,2004,750,0,1,"blue96.png",0,"red","745.2839999999851"
"771","2",371,4,"Trial","Response",1,719,600,1,1,"sanityblue17.png",1,"red","596.3209999999963"
"772","2",372,4,"Trial","Response",1,197,500,0,0,"red47.png",0,"red","496.8549999999814"
"773","2",373,4,"Trial","Response",1,674,100,1,1,"blue121.png",0,"red","99.34599999990314"
"774","2",374,4,"Trial","Response",1,255,300,0,0,"red30.png",0,"red","298.09399999980815"
"775","2",375,4,"Trial","Response",0,67,3000,1,0,"red168.png",0,"red","2997.630000000121"
"776","2",376,4,"Trial","Response",0,54,100,1,0,"red110.png",0,"red","99.4069999998901"
"777","2",377,4,"Trial","Response",0,343,1000,1,0,"red49.png",0,"red","993.7029999999795"
"778","2",378,4,"Trial","Response",0,145,750,1,0,"red143.png",0,"red","745.2700000000186"
"779","2",379,4,"Trial","Response",1,223,750,1,1,"blue27.png",0,"red","745.3449999999721"
"780","2",380,4,"Trial","Response",1,392,3000,1,1,"blue194.png",0,"red","2997.653999999864"
"781","2",381,4,"Trial","Response",0,126,3000,1,0,"red166.png",0,"red","2997.649999999907"
"782","2",382,4,"Trial","Response",0,347,500,1,0,"red102.png",0,"red","496.86699999985285"
"783","2",383,4,"Trial","Response",1,460,300,0,0,"red119.png",0,"red","298.1119999999646"
"784","2",384,4,"Trial","Response",1,401,500,0,0,"red34.png",0,"red","496.90200000000186"
"785","2",385,4,"Trial","Response",0,209,3000,1,0,"red35.png",0,"red","2997.6759999999776"
"786","2",386,4,"Trial","Response",1,699,1000,1,1,"blue91.png",0,"red","993.7129999999888"
"787","2",387,4,"Trial","Response",0,321,1000,1,0,"red65.png",0,"red","993.7119999998249"
"788","2",388,4,"Trial","Response",0,454,300,1,0,"red61.png",0,"red","298.1099999998696"
"789","2",389,4,"Trial","Response",0,459,1000,1,0,"red142.png",0,"red","993.7170000001788"
"790","2",390,4,"Trial","Response",1,366,500,0,0,"red177.png",0,"red","496.8759999999311"
"791","2",391,4,"Trial","Response",0,274,500,0,1,"blue78.png",0,"red","496.85000000009313"
"792","2",392,4,"Trial","Response",0,282,600,1,0,"sanityred12.png",1,"red","596.2689999998547"
"793","2",393,4,"Trial","Response",1,373,1000,1,1,"blue173.png",0,"red","993.7340000001714"
"794","2",394,4,"Trial","Response",0,382,1000,1,0,"red60.png",0,"red","993.7109999998938"
"795","2",395,4,"Trial","Response",1,468,1000,0,0,"red6.png",0,"red","993.7679999999236"
"796","2",396,4,"Trial","Response",0,75,600,1,0,"sanityred2.png",1,"red","596.2109999998938"
"797","2",397,4,"Trial","Response",0,262,300,1,0,"red63.png",0,"red","298.09399999980815"
"798","2",398,4,"Trial","Response",0,237,750,1,0,"red112.png",0,"red","745.2749999999069"
"799","2",399,4,"Trial","Response",1,302,300,0,0,"red186.png",0,"red","298.12999999988824"
"800","2",400,4,"Trial","Response",1,265,1000,1,1,"blue167.png",0,"red","993.7129999999888"
"801","4",1,1,"Trial","Response",1,399,500,1,1,"blue69.png",0,"blue","500.0240000000049"
"802","4",2,1,"Trial","Response",1,357,300,1,1,"blue44.png",0,"blue","299.81900000000314"
"803","4",3,1,"Trial","Response",1,172,600,1,1,"sanityblue9.png",1,"blue","600.1749999999884"
"804","4",4,1,"Trial","Response",0,342,500,1,0,"red42.png",0,"blue","500.06700000001"
"805","4",5,1,"Trial","Response",1,199,1000,1,1,"blue9.png",0,"blue","999.9090000000142"
"806","4",6,1,"Trial","Response",1,698,3000,1,1,"blue86.png",0,"blue","2999.8859999999986"
"807","4",7,1,"Trial","Response",0,314,1000,1,0,"red106.png",0,"blue","999.9100000000035"
"808","4",8,1,"Trial","Response",1,385,100,0,0,"red16.png",0,"blue","99.9429999999993"
"809","4",9,1,"Trial","Response",0,324,500,0,1,"blue192.png",0,"blue","499.9320000000007"
"810","4",10,1,"Trial","Response",1,277,3000,1,1,"blue132.png",0,"blue","2999.695000000007"
"811","4",11,1,"Trial","Response",0,339,750,1,0,"red68.png",0,"blue","750.0169999999925"
"812","4",12,1,"Trial","Response",1,349,600,1,1,"sanityblue17.png",1,"blue","599.9490000000224"
"813","4",13,1,"Trial","Response",0,398,1000,1,0,"red4.png",0,"blue","1000.1529999999912"
"814","4",14,1,"Trial","Response",0,562,100,1,0,"red66.png",0,"blue","99.75899999999092"
"815","4",15,1,"Trial","Response",1,419,600,1,1,"sanityblue11.png",1,"blue","599.9649999999965"
"816","4",16,1,"Trial","Response",0,122,1000,0,1,"blue77.png",0,"blue","999.859999999986"
"817","4",17,1,"Trial","Response",1,549,1000,1,1,"blue59.png",0,"blue","1000.1669999999867"
"818","4",18,1,"Trial","Response",0,688,300,0,1,"blue140.png",0,"blue","299.1230000000214"
"819","4",19,1,"Trial","Response",1,382,600,1,1,"sanityblue1.png",1,"blue","600.1009999999951"
"820","4",20,1,"Trial","Response",1,807,100,1,1,"blue1.png",0,"blue","99.96700000000419"
"821","4",21,1,"Trial","Response",0,402,300,1,0,"red160.png",0,"blue","300.09599999999045"
"822","4",22,1,"Trial","Response",0,755,750,0,1,"blue27.png",0,"blue","749.9679999999935"
"823","4",23,1,"Trial","Response",0,447,500,0,1,"blue6.png",0,"blue","499.98199999998906"
"824","4",24,1,"Trial","Response",0,338,600,1,0,"sanityred12.png",1,"blue","600.1270000000077"
"825","4",25,1,"Trial","Response",1,296,300,1,1,"blue168.png",0,"blue","300.0329999999958"
"826","4",26,1,"Trial","Response",0,147,1000,1,0,"red22.png",0,"blue","999.9980000000214"
"827","4",27,1,"Trial","Response",0,554,100,0,1,"blue60.png",0,"blue","100.01699999999255"
"828","4",28,1,"Trial","Response",1,756,100,1,1,"blue62.png",0,"blue","100.0909999999858"
"829","4",29,1,"Trial","Response",0,158,750,1,0,"red200.png",0,"blue","749.8919999999925"
"830","4",30,1,"Trial","Response",0,141,500,0,1,"blue38.png",0,"blue","499.8420000000042"
"831","4",31,1,"Trial","Response",1,468,500,1,1,"blue91.png",0,"blue","499.85899999999674"
"832","4",32,1,"Trial","Response",1,624,100,1,1,"blue107.png",0,"blue","100.05400000000373"
"833","4",33,1,"Trial","Response",1,377,100,1,1,"blue186.png",0,"blue","99.77900000000955"
"834","4",34,1,"Trial","Response",0,432,300,0,1,"blue84.png",0,"blue","299.93600000001607"
"835","4",35,1,"Trial","Response",1,312,1000,1,1,"blue87.png",0,"blue","999.994000000006"
"836","4",36,1,"Trial","Response",1,316,100,1,1,"blue97.png",0,"blue","99.8969999999972"
"837","4",37,1,"Trial","Response",0,469,1000,0,1,"blue3.png",0,"blue","1000.2169999999751"
"838","4",38,1,"Trial","Response",0,366,750,0,1,"blue82.png",0,"blue","749.993999999977"
"839","4",39,1,"Trial","Response",1,314,1000,1,1,"blue134.png",0,"blue","1000.3760000000184"
"840","4",40,1,"Trial","Response",1,402,300,1,1,"blue147.png",0,"blue","299.98199999998906"
"841","4",41,1,"Trial","Response",1,557,600,1,1,"sanityblue3.png",1,"blue","600.2020000000193"
"842","4",42,1,"Trial","Response",0,327,750,0,1,"blue83.png",0,"blue","749.99099999998"
"843","4",43,1,"Trial","Response",1,436,750,1,1,"blue10.png",0,"blue","750.0279999999912"
"844","4",44,1,"Trial","Response",0,407,500,1,0,"red145.png",0,"blue","499.98399999999674"
"845","4",45,1,"Trial","Response",0,373,750,0,1,"blue23.png",0,"blue","750.1689999999944"
"846","4",46,1,"Trial","Response",0,368,300,1,0,"red194.png",0,"blue","299.99400000000605"
"847","4",47,1,"Trial","Response",1,216,750,1,1,"blue175.png",0,"blue","749.9260000000068"
"848","4",48,1,"Trial","Response",1,158,3000,1,1,"blue155.png",0,"blue","2999.969000000012"
"849","4",49,1,"Trial","Response",0,134,500,1,0,"red54.png",0,"blue","499.9679999999935"
"850","4",50,1,"Trial","Response",0,171,3000,1,0,"red170.png",0,"blue","2999.9159999999683"
"851","4",51,1,"Trial","Response",0,829,300,1,0,"red14.png",0,"blue","300.2480000000214"
"852","4",52,1,"Trial","Response",1,152,3000,1,1,"blue195.png",0,"blue","3000.1540000000386"
"853","4",53,1,"Trial","Response",0,135,1000,1,0,"red122.png",0,"blue","1000.2060000000056"
"854","4",54,1,"Trial","Response",0,390,750,1,0,"red190.png",0,"blue","749.9579999999842"
"855","4",55,1,"Trial","Response",1,412,100,1,1,"blue130.png",0,"blue","99.76799999998184"
"856","4",56,1,"Trial","Response",1,357,100,0,0,"red179.png",0,"blue","99.99699999997392"
"857","4",57,1,"Trial","Response",1,200,3000,1,1,"blue93.png",0,"blue","2999.9830000000075"
"858","4",58,1,"Trial","Response",1,405,100,1,1,"blue106.png",0,"blue","99.94899999996414"
"859","4",59,1,"Trial","Response",1,181,750,1,1,"blue81.png",0,"blue","750.2469999999739"
"860","4",60,1,"Trial","Response",0,509,500,0,1,"blue71.png",0,"blue","499.98200000001816"
"861","4",61,1,"Trial","Response",0,715,100,1,0,"red84.png",0,"blue","99.75900000002002"
"862","4",62,1,"Trial","Response",1,198,600,1,1,"sanityblue6.png",1,"blue","599.9539999999688"
"863","4",63,1,"Trial","Response",1,741,300,1,1,"blue58.png",0,"blue","299.9290000000037"
"864","4",64,1,"Trial","Response",1,338,500,1,1,"blue124.png",0,"blue","498.9870000000228"
"865","4",65,1,"Trial","Response",0,342,300,1,0,"red105.png",0,"blue","299.6710000000312"
"866","4",66,1,"Trial","Response",1,181,3000,1,1,"blue92.png",0,"blue","2999.9409999999916"
"867","4",67,1,"Trial","Response",1,578,750,0,0,"red36.png",0,"blue","750.0050000000047"
"868","4",68,1,"Trial","Response",0,889,100,1,0,"red34.png",0,"blue","98.89100000000326"
"869","4",69,1,"Trial","Response",0,158,3000,1,0,"red28.png",0,"blue","2999.847000000009"
"870","4",70,1,"Trial","Response",1,150,3000,1,1,"blue177.png",0,"blue","2999.8800000000047"
"871","4",71,1,"Trial","Response",1,986,300,1,1,"blue162.png",0,"blue","299.88000000000466"
"872","4",72,1,"Trial","Response",0,364,500,1,0,"red143.png",0,"blue","499.780999999959"
"873","4",73,1,"Trial","Response",0,900,1000,0,1,"blue30.png",0,"blue","1000.0139999999665"
"874","4",74,1,"Trial","Response",1,632,750,0,0,"red195.png",0,"blue","749.7140000000363"
"875","4",75,1,"Trial","Response",0,169,600,1,0,"sanityred7.png",1,"blue","599.7700000000186"
"876","4",76,1,"Trial","Response",0,278,1000,1,0,"red90.png",0,"blue","1000.1739999999991"
"877","4",77,1,"Trial","Response",0,56,3000,1,0,"red53.png",0,"blue","3000.106000000029"
"878","4",78,1,"Trial","Response",0,1740,600,1,0,"sanityred10.png",1,"blue","600.060999999987"
"879","4",79,1,"Trial","Response",1,798,100,0,0,"red132.png",0,"blue","99.99400000000605"
"880","4",80,1,"Trial","Response",0,470,600,1,0,"sanityred5.png",1,"blue","599.984999999986"
"881","4",81,1,"Trial","Response",1,417,500,1,1,"blue15.png",0,"blue","499.92599999997765"
"882","4",82,1,"Trial","Response",1,224,3000,1,1,"blue127.png",0,"blue","2999.8009999999776"
"883","4",83,1,"Trial","Response",0,163,1000,1,0,"red39.png",0,"blue","999.8339999999735"
"884","4",84,1,"Trial","Response",0,565,1000,0,1,"blue102.png",0,"blue","999.7149999999674"
"885","4",85,1,"Trial","Response",0,238,3000,1,0,"red155.png",0,"blue","3000.1650000000373"
"886","4",86,1,"Trial","Response",0,581,300,1,0,"red186.png",0,"blue","299.70100000000093"
"887","4",87,1,"Trial","Response",0,110,3000,1,0,"red138.png",0,"blue","3000.1840000000084"
"888","4",88,1,"Trial","Response",1,315,300,1,1,"blue41.png",0,"blue","300.1589999999851"
"889","4",89,1,"Trial","Response",0,387,300,1,0,"red8.png",0,"blue","299.6809999999823"
"890","4",90,1,"Trial","Response",0,182,500,1,0,"red56.png",0,"blue","499.78100000001723"
"891","4",91,1,"Trial","Response",1,127,750,1,1,"blue46.png",0,"blue","749.8620000000228"
"892","4",92,1,"Trial","Response",1,295,3000,1,1,"blue37.png",0,"blue","2999.6500000000233"
"893","4",93,1,"Trial","Response",1,322,500,0,0,"red15.png",0,"blue","500.2299999999814"
"894","4",94,1,"Trial","Response",1,156,500,1,1,"blue8.png",0,"blue","499.8189999999595"
"895","4",95,1,"Trial","Response",0,305,750,1,0,"red46.png",0,"blue","749.7860000000219"
"896","4",96,1,"Trial","Response",0,272,750,0,1,"blue4.png",0,"blue","750.0160000000033"
"897","4",97,1,"Trial","Response",1,233,1000,1,1,"blue47.png",0,"blue","1000.0469999999623"
"898","4",98,1,"Trial","Response",0,2000,3000,0,0,"red86.png",0,"blue","2999.899000000034"
"899","4",99,1,"Trial","Response",1,362,300,1,1,"blue80.png",0,"blue","299.7510000000475"
"900","4",100,1,"Trial","Response",1,821,100,1,1,"blue167.png",0,"blue","100.0569999999716"
"901","4",101,2,"Trial","Response",0,503,1000,0,1,"blue57.png",0,"red","999.9779999998864"
"902","4",102,2,"Trial","Response",0,248,1000,1,0,"red48.png",0,"red","999.73199999996"
"903","4",103,2,"Trial","Response",0,348,500,1,0,"red200.png",0,"red","499.92299999995157"
"904","4",104,2,"Trial","Response",0,232,3000,1,0,"red174.png",0,"red","2999.8680000000168"
"905","4",105,2,"Trial","Response",1,760,100,0,0,"red11.png",0,"red","100.25899999996182"
"906","4",106,2,"Trial","Response",0,2000,3000,0,0,"red63.png",0,"red","2999.7449999999953"
"907","4",107,2,"Trial","Response",1,696,100,1,1,"blue76.png",0,"red","100.19700000004377"
"908","4",108,2,"Trial","Response",1,570,100,1,1,"blue21.png",0,"red","99.93199999991339"
"909","4",109,2,"Trial","Response",0,452,100,1,0,"red8.png",0,"red","99.92799999995623"
"910","4",110,2,"Trial","Response",0,2000,750,0,0,"red94.png",0,"red","750.1959999999963"
"911","4",111,2,"Trial","Response",0,1592,3000,0,1,"blue86.png",0,"red","2999.9710000000196"
"912","4",112,2,"Trial","Response",0,372,1000,1,0,"red47.png",0,"red","999.9470000000438"
"913","4",113,2,"Trial","Response",0,654,3000,0,1,"blue18.png",0,"red","2999.640000000014"
"914","4",114,2,"Trial","Response",0,2000,1000,0,1,"blue14.png",0,"red","999.8429999999935"
"915","4",115,2,"Trial","Response",0,2000,1000,0,1,"blue4.png",0,"red","999.9899999999907"
"916","4",116,2,"Trial","Response",0,163,600,1,0,"sanityred2.png",1,"red","600.1609999999637"
"917","4",117,2,"Trial","Response",0,2000,600,0,0,"sanityred15.png",1,"red","600.0840000000317"
"918","4",118,2,"Trial","Response",0,878,100,1,0,"red118.png",0,"red","99.90099999995437"
"919","4",119,2,"Trial","Response",0,181,3000,1,0,"red35.png",0,"red","2999.767000000109"
"920","4",120,2,"Trial","Response",0,164,1000,1,0,"red143.png",0,"red","999.8800000000047"
"921","4",121,2,"Trial","Response",1,498,300,1,1,"blue138.png",0,"red","300.23300000000745"
"922","4",122,2,"Trial","Response",0,626,100,1,0,"red62.png",0,"red","99.96799999999348"
"923","4",123,2,"Trial","Response",0,985,750,1,0,"red40.png",0,"red","750.2229999999981"
"924","4",124,2,"Trial","Response",0,566,100,1,0,"red71.png",0,"red","100.08600000001024"
"925","4",125,2,"Trial","Response",1,502,300,0,0,"red53.png",0,"red","299.80200000002515"
"926","4",126,2,"Trial","Response",0,365,500,1,0,"red88.png",0,"red","499.6720000000205"
"927","4",127,2,"Trial","Response",0,991,300,1,0,"red116.png",0,"red","300.10699999995995"
"928","4",128,2,"Trial","Response",0,825,300,1,0,"red176.png",0,"red","300.25800000003073"
"929","4",129,2,"Trial","Response",0,109,500,0,1,"blue135.png",0,"red","499.9300000000512"
"930","4",130,2,"Trial","Response",1,356,500,1,1,"blue44.png",0,"red","500.02700000000186"
"931","4",131,2,"Trial","Response",0,70,500,1,0,"red76.png",0,"red","499.7719999999972"
"932","4",132,2,"Trial","Response",0,807,100,1,0,"red188.png",0,"red","99.92799999995623"
"933","4",133,2,"Trial","Response",0,2000,3000,0,1,"blue60.png",0,"red","3000.030000000028"
"934","4",134,2,"Trial","Response",0,295,600,1,0,"sanityred12.png",1,"red","600.0030000000261"
"935","4",135,2,"Trial","Response",0,509,300,1,0,"red46.png",0,"red","300.1820000000298"
"936","4",136,2,"Trial","Response",0,270,300,1,0,"red117.png",0,"red","300.1810000000987"
"937","4",137,2,"Trial","Response",0,262,3000,1,0,"red68.png",0,"red","2999.6729999999516"
"938","4",138,2,"Trial","Response",1,280,3000,1,1,"blue148.png",0,"red","3000.128000000026"
"939","4",139,2,"Trial","Response",0,622,500,0,1,"blue136.png",0,"red","500.0889999999199"
"940","4",140,2,"Trial","Response",0,745,500,1,0,"red13.png",0,"red","499.91500000003725"
"941","4",141,2,"Trial","Response",0,273,600,1,0,"sanityred13.png",1,"red","600.1030000000028"
"942","4",142,2,"Trial","Response",1,148,3000,0,0,"red159.png",0,"red","2999.905999999959"
"943","4",143,2,"Trial","Response",1,214,600,1,1,"sanityblue10.png",1,"red","599.8709999999264"
"944","4",144,2,"Trial","Response",1,748,100,0,0,"red66.png",0,"red","99.78100000007544"
"945","4",145,2,"Trial","Response",1,243,600,1,1,"sanityblue1.png",1,"red","599.7749999999069"
"946","4",146,2,"Trial","Response",0,537,750,0,1,"blue68.png",0,"red","750.0289999999804"
"947","4",147,2,"Trial","Response",0,279,300,0,1,"blue155.png",0,"red","300.20999999996275"
"948","4",148,2,"Trial","Response",0,438,750,1,0,"red109.png",0,"red","750.1410000000615"
"949","4",149,2,"Trial","Response",0,439,3000,1,0,"red145.png",0,"red","2999.9340000000084"
"950","4",150,2,"Trial","Response",1,200,500,0,0,"red9.png",0,"red","499.9969999999739"
"951","4",151,2,"Trial","Response",0,228,750,1,0,"red185.png",0,"red","749.9579999999842"
"952","4",152,2,"Trial","Response",0,356,100,0,1,"blue164.png",0,"red","99.91200000001118"
"953","4",153,2,"Trial","Response",1,412,500,1,1,"blue166.png",0,"red","499.7750000000233"
"954","4",154,2,"Trial","Response",0,306,1000,1,0,"red78.png",0,"red","999.7719999999972"
"955","4",155,2,"Trial","Response",0,154,3000,1,0,"red144.png",0,"red","2999.969000000041"
"956","4",156,2,"Trial","Response",1,175,1000,1,1,"blue146.png",0,"red","1000.1469999999972"
"957","4",157,2,"Trial","Response",1,223,750,1,1,"blue159.png",0,"red","749.98199999996"
"958","4",158,2,"Trial","Response",0,164,600,1,0,"sanityred17.png",1,"red","600.0520000000251"
"959","4",159,2,"Trial","Response",0,440,500,1,0,"red42.png",0,"red","499.9340000000084"
"960","4",160,2,"Trial","Response",0,698,100,1,0,"red87.png",0,"red","99.98999999999069"
"961","4",161,2,"Trial","Response",1,196,750,1,1,"blue147.png",0,"red","749.9620000000577"
"962","4",162,2,"Trial","Response",0,281,500,0,1,"blue104.png",0,"red","500.1799999999348"
"963","4",163,2,"Trial","Response",0,369,100,0,1,"blue191.png",0,"red","99.71100000001024"
"964","4",164,2,"Trial","Response",1,986,500,1,1,"blue134.png",0,"red","500.19699999992736"
"965","4",165,2,"Trial","Response",0,441,300,1,0,"red52.png",0,"red","299.88100000005215"
"966","4",166,2,"Trial","Response",1,297,3000,1,1,"blue82.png",0,"red","2999.9360000001034"
"967","4",167,2,"Trial","Response",0,360,1000,1,0,"red57.png",0,"red","999.73199999996"
"968","4",168,2,"Trial","Response",0,316,500,1,0,"red39.png",0,"red","499.7459999999264"
"969","4",169,2,"Trial","Response",1,151,3000,1,1,"blue41.png",0,"red","2999.7029999999795"
"970","4",170,2,"Trial","Response",0,317,1000,1,0,"red37.png",0,"red","1000.189000000013"
"971","4",171,2,"Trial","Response",0,281,500,1,0,"red134.png",0,"red","499.8450000000885"
"972","4",172,2,"Trial","Response",1,363,600,1,1,"sanityblue12.png",1,"red","599.9250000000466"
"973","4",173,2,"Trial","Response",0,842,300,1,0,"red136.png",0,"red","300.15500000002794"
"974","4",174,2,"Trial","Response",0,356,750,0,1,"blue118.png",0,"red","750.2099999999627"
"975","4",175,2,"Trial","Response",0,299,750,1,0,"red99.png",0,"red","749.98199999996"
"976","4",176,2,"Trial","Response",0,152,3000,1,0,"red140.png",0,"red","2999.7430000000168"
"977","4",177,2,"Trial","Response",1,358,750,0,0,"red49.png",0,"red","750.1930000000866"
"978","4",178,2,"Trial","Response",1,488,750,1,1,"blue28.png",0,"red","750.030999999959"
"979","4",179,2,"Trial","Response",1,286,750,1,1,"blue161.png",0,"red","749.941000000108"
"980","4",180,2,"Trial","Response",0,463,300,0,1,"blue102.png",0,"red","299.92700000002515"
"981","4",181,2,"Trial","Response",0,410,600,1,0,"sanityred18.png",1,"red","600.0910000000149"
"982","4",182,2,"Trial","Response",0,894,100,0,1,"blue69.png",0,"red","100.03700000001118"
"983","4",183,2,"Trial","Response",1,431,600,1,1,"sanityblue18.png",1,"red","599.7970000000205"
"984","4",184,2,"Trial","Response",0,491,500,1,0,"red160.png",0,"red","500.2280000000028"
"985","4",185,2,"Trial","Response",0,856,100,0,1,"blue125.png",0,"red","99.9769999999553"
"986","4",186,2,"Trial","Response",0,224,750,1,0,"red96.png",0,"red","750.137999999919"
"987","4",187,2,"Trial","Response",0,343,1000,0,1,"blue89.png",0,"red","999.8619999999646"
"988","4",188,2,"Trial","Response",0,309,300,0,1,"blue153.png",0,"red","300.02700000000186"
"989","4",189,2,"Trial","Response",0,765,100,1,0,"red41.png",0,"red","98.75199999997858"
"990","4",190,2,"Trial","Response",0,319,300,0,1,"blue99.png",0,"red","299.91500000003725"
"991","4",191,2,"Trial","Response",0,369,300,1,0,"red129.png",0,"red","299.95200000004843"
"992","4",192,2,"Trial","Response",0,271,300,1,0,"red65.png",0,"red","299.7639999999665"
"993","4",193,2,"Trial","Response",0,324,750,1,0,"red175.png",0,"red","750.0849999999627"
"994","4",194,2,"Trial","Response",0,327,1000,1,0,"red17.png",0,"red","999.954000000027"
"995","4",195,2,"Trial","Response",0,254,3000,1,0,"red155.png",0,"red","2999.9139999999898"
"996","4",196,2,"Trial","Response",0,1074,300,0,1,"blue58.png",0,"red","299.9320000000298"
"997","4",197,2,"Trial","Response",1,271,1000,1,1,"blue182.png",0,"red","999.9660000000149"
"998","4",198,2,"Trial","Response",0,549,750,1,0,"red103.png",0,"red","749.9360000001034"
"999","4",199,2,"Trial","Response",0,298,1000,1,0,"red135.png",0,"red","999.9039999999804"
"1000","4",200,2,"Trial","Response",0,127,1000,1,0,"red29.png",0,"red","1000.1489999999758"
"1001","4",201,3,"Trial","Response",0,750,500,1,0,"red62.png",0,"red","499.95000000006985"
"1002","4",202,3,"Trial","Response",0,501,750,0,1,"blue138.png",0,"red","749.9890000000596"
"1003","4",203,3,"Trial","Response",0,575,3000,0,1,"blue77.png",0,"red","3000.1080000000075"
"1004","4",204,3,"Trial","Response",0,494,750,1,0,"red150.png",0,"red","749.8759999999311"
"1005","4",205,3,"Trial","Response",0,177,3000,1,0,"red145.png",0,"red","2999.939999999944"
"1006","4",206,3,"Trial","Response",0,364,1000,1,0,"red118.png",0,"red","999.8460000000196"
"1007","4",207,3,"Trial","Response",0,750,100,1,0,"red46.png",0,"red","99.98899999994319"
"1008","4",208,3,"Trial","Response",1,437,100,1,1,"blue86.png",0,"red","100.2280000000028"
"1009","4",209,3,"Trial","Response",0,208,600,1,0,"sanityred20.png",1,"red","599.9539999999106"
"1010","4",210,3,"Trial","Response",0,449,3000,1,0,"red155.png",0,"red","3000.1609999999637"
"1011","4",211,3,"Trial","Response",0,181,3000,1,0,"red6.png",0,"red","2999.9210000000894"
"1012","4",212,3,"Trial","Response",0,442,750,1,0,"red180.png",0,"red","749.8710000000428"
"1013","4",213,3,"Trial","Response",0,602,100,0,1,"blue90.png",0,"red","99.95900000003166"
"1014","4",214,3,"Trial","Response",0,319,1000,1,0,"red69.png",0,"red","999.984999999986"
"1015","4",215,3,"Trial","Response",0,150,3000,1,0,"red98.png",0,"red","2999.8209999999963"
"1016","4",216,3,"Trial","Response",1,684,300,1,1,"blue119.png",0,"red","299.93900000001304"
"1017","4",217,3,"Trial","Response",0,1021,1000,0,1,"blue123.png",0,"red","999.9809999999125"
"1018","4",218,3,"Trial","Response",1,461,300,1,1,"blue97.png",0,"red","300.0590000000084"
"1019","4",219,3,"Trial","Response",0,443,750,1,0,"red43.png",0,"red","749.8059999999823"
"1020","4",220,3,"Trial","Response",0,2000,3000,0,0,"red132.png",0,"red","2999.898999999976"
"1021","4",221,3,"Trial","Response",1,586,100,1,1,"blue136.png",0,"red","99.8969999999972"
"1022","4",222,3,"Trial","Response",0,302,300,1,0,"red168.png",0,"red","300.17700000002515"
"1023","4",223,3,"Trial","Response",1,493,1000,1,1,"blue129.png",0,"red","999.8540000000503"
"1024","4",224,3,"Trial","Response",1,224,3000,1,1,"blue177.png",0,"red","2999.701000000001"
"1025","4",225,3,"Trial","Response",0,334,300,1,0,"red109.png",0,"red","300.01800000004005"
"1026","4",226,3,"Trial","Response",0,660,750,1,0,"red63.png",0,"red","749.6970000000438"
"1027","4",227,3,"Trial","Response",0,774,100,0,1,"blue162.png",0,"red","99.75300000002608"
"1028","4",228,3,"Trial","Response",0,285,1000,1,0,"red45.png",0,"red","1000.0259999999544"
"1029","4",229,3,"Trial","Response",0,672,500,1,0,"red48.png",0,"red","500.0329999999376"
"1030","4",230,3,"Trial","Response",0,1107,1000,1,0,"red170.png",0,"red","1000.1560000000754"
"1031","4",231,3,"Trial","Response",0,577,300,1,0,"red138.png",0,"red","300.00900000007823"
"1032","4",232,3,"Trial","Response",0,828,100,1,0,"red192.png",0,"red","99.78300000005402"
"1033","4",233,3,"Trial","Response",0,387,500,1,0,"red74.png",0,"red","499.9910000000382"
"1034","4",234,3,"Trial","Response",1,389,600,1,1,"sanityblue13.png",1,"red","600.2079999999842"
"1035","4",235,3,"Trial","Response",0,811,300,1,0,"red185.png",0,"red","300.0239999999758"
"1036","4",236,3,"Trial","Response",1,1072,100,0,0,"red84.png",0,"red","100.02000000001863"
"1037","4",237,3,"Trial","Response",0,638,600,1,0,"sanityred7.png",1,"red","600.1289999999572"
"1038","4",238,3,"Trial","Response",0,382,750,1,0,"red5.png",0,"red","749.9880000000121"
"1039","4",239,3,"Trial","Response",0,216,3000,1,0,"red190.png",0,"red","2999.8000000000466"
"1040","4",240,3,"Trial","Response",0,545,100,0,1,"blue147.png",0,"red","100.21400000003632"
"1041","4",241,3,"Trial","Response",1,298,300,1,1,"blue143.png",0,"red","299.92399999999907"
"1042","4",242,3,"Trial","Response",1,906,750,1,1,"blue174.png",0,"red","750.2070000000531"
"1043","4",243,3,"Trial","Response",1,1270,500,1,1,"blue110.png",0,"red","500.237000000081"
"1044","4",244,3,"Trial","Response",1,289,600,1,1,"sanityblue20.png",1,"red","599.9129999999423"
"1045","4",245,3,"Trial","Response",0,597,500,1,0,"red117.png",0,"red","499.94999999995343"
"1046","4",246,3,"Trial","Response",0,556,100,1,0,"red24.png",0,"red","100.00300000002608"
"1047","4",247,3,"Trial","Response",0,234,1000,1,0,"red8.png",0,"red","1000.1539999999804"
"1048","4",248,3,"Trial","Response",0,824,100,1,0,"red38.png",0,"red","99.99499999999534"
"1049","4",249,3,"Trial","Response",0,589,3000,1,0,"red101.png",0,"red","2999.9220000000205"
"1050","4",250,3,"Trial","Response",1,189,3000,1,1,"blue103.png",0,"red","2999.810999999987"
"1051","4",251,3,"Trial","Response",0,176,3000,1,0,"red199.png",0,"red","2999.930999999866"
"1052","4",252,3,"Trial","Response",0,150,3000,0,1,"blue73.png",0,"red","2999.753999999957"
"1053","4",253,3,"Trial","Response",1,206,600,1,1,"sanityblue8.png",1,"red","600.0190000000875"
"1054","4",254,3,"Trial","Response",0,368,300,1,0,"red59.png",0,"red","299.98500000010245"
"1055","4",255,3,"Trial","Response",0,285,500,0,1,"blue112.png",0,"red","499.9200000001583"
"1056","4",256,3,"Trial","Response",0,988,1000,1,0,"red31.png",0,"red","999.9259999999776"
"1057","4",257,3,"Trial","Response",0,131,3000,1,0,"red126.png",0,"red","2999.908000000054"
"1058","4",258,3,"Trial","Response",0,514,100,1,0,"red119.png",0,"red","100.18999999994412"
"1059","4",259,3,"Trial","Response",0,771,750,0,1,"blue11.png",0,"red","750.2390000000596"
"1060","4",260,3,"Trial","Response",0,350,100,1,0,"red135.png",0,"red","100.06000000005588"
"1061","4",261,3,"Trial","Response",1,456,600,1,1,"sanityblue5.png",1,"red","599.7770000000019"
"1062","4",262,3,"Trial","Response",0,605,750,1,0,"red194.png",0,"red","749.8339999997988"
"1063","4",263,3,"Trial","Response",0,592,750,1,0,"red87.png",0,"red","749.6959999999963"
"1064","4",264,3,"Trial","Response",0,494,750,0,1,"blue93.png",0,"red","749.7909999999683"
"1065","4",265,3,"Trial","Response",0,406,100,1,0,"red179.png",0,"red","100.15400000009686"
"1066","4",266,3,"Trial","Response",0,168,600,1,0,"sanityred8.png",1,"red","599.9990000000689"
"1067","4",267,3,"Trial","Response",1,557,500,1,1,"blue1.png",0,"red","499.7249999998603"
"1068","4",268,3,"Trial","Response",1,704,300,1,1,"blue17.png",0,"red","299.9799999999814"
"1069","4",269,3,"Trial","Response",0,898,100,0,1,"blue167.png",0,"red","100.21799999987707"
"1070","4",270,3,"Trial","Response",1,964,1000,1,1,"blue29.png",0,"red","999.9569999999367"
"1071","4",271,3,"Trial","Response",0,767,300,1,0,"red34.png",0,"red","299.7719999998808"
"1072","4",272,3,"Trial","Response",0,764,600,1,0,"sanityred4.png",1,"red","599.841999999946"
"1073","4",273,3,"Trial","Response",1,443,500,0,0,"red68.png",0,"red","500.1929999999702"
"1074","4",274,3,"Trial","Response",0,647,1000,1,0,"red160.png",0,"red","1000.0249999999069"
"1075","4",275,3,"Trial","Response",1,224,3000,1,1,"blue152.png",0,"red","3000.1170000000857"
"1076","4",276,3,"Trial","Response",0,692,750,0,1,"blue192.png",0,"red","749.9299999999348"
"1077","4",277,3,"Trial","Response",0,184,500,1,0,"red64.png",0,"red","499.9859999998007"
"1078","4",278,3,"Trial","Response",1,318,1000,1,1,"blue23.png",0,"red","1000.0049999998882"
"1079","4",279,3,"Trial","Response",1,509,500,1,1,"blue6.png",0,"red","500.22200000006706"
"1080","4",280,3,"Trial","Response",1,273,3000,1,1,"blue135.png",0,"red","3000.1700000001583"
"1081","4",281,3,"Trial","Response",0,196,750,1,0,"red196.png",0,"red","749.8890000001993"
"1082","4",282,3,"Trial","Response",0,478,1000,0,1,"blue124.png",0,"red","1000.0160000000615"
"1083","4",283,3,"Trial","Response",0,311,750,1,0,"red35.png",0,"red","749.9650000000838"
"1084","4",284,3,"Trial","Response",1,386,500,1,1,"blue151.png",0,"red","499.83700000005774"
"1085","4",285,3,"Trial","Response",0,591,300,0,1,"blue4.png",0,"red","299.9969999999739"
"1086","4",286,3,"Trial","Response",0,311,300,1,0,"red71.png",0,"red","299.76599999982864"
"1087","4",287,3,"Trial","Response",0,332,1000,0,1,"blue199.png",0,"red","999.8669999998529"
"1088","4",288,3,"Trial","Response",0,415,1000,1,0,"red95.png",0,"red","999.9820000000764"
"1089","4",289,3,"Trial","Response",0,504,300,1,0,"red1.png",0,"red","299.85900000017136"
"1090","4",290,3,"Trial","Response",0,1103,600,1,0,"sanityred17.png",1,"red","599.6990000000224"
"1091","4",291,3,"Trial","Response",1,379,300,1,1,"blue45.png",0,"red","299.8049999999348"
"1092","4",292,3,"Trial","Response",0,765,600,1,0,"sanityred15.png",1,"red","600.0390000001062"
"1093","4",293,3,"Trial","Response",1,396,750,1,1,"blue12.png",0,"red","749.9269999999087"
"1094","4",294,3,"Trial","Response",0,866,100,1,0,"red149.png",0,"red","100.05000000004657"
"1095","4",295,3,"Trial","Response",1,107,500,1,1,"blue68.png",0,"red","499.7919999998994"
"1096","4",296,3,"Trial","Response",0,260,300,1,0,"red4.png",0,"red","300.2279999998864"
